,subject_id,round,overall_round,price,cost,service_level,expediting_cost,salvage_value,optimum,order,demand,leftover,shortage,lagleftover,lagshortage,lagdemand,gender,age,semester,related_course,program,treatment_id,included_treatment,study,experiment,playing_order,bundle,expediting_level,related_course_r,distance_opt,round_r,subject_id_r,exp_profit_norm,proportion_max_exp_profit
0,1,1,1,12,3.0,0.0,0,0,75.0,95,32,63,0,,,,Female,2.0,7.0,Past semesters,Business,1,0,Base study,Main,,,,Yes,20.0,1,0,0.0,0.0
1,1,2,2,12,3.0,0.0,0,0,75.0,30,43,0,13,63.0,0.0,32.0,Female,2.0,7.0,Past semesters,Business,1,0,Base study,Main,,,,Yes,45.0,2,0,0.0,0.0
2,1,3,3,12,3.0,0.0,0,0,75.0,45,13,32,0,0.0,13.0,43.0,Female,2.0,7.0,Past semesters,Business,1,0,Base study,Main,,,,Yes,30.0,3,0,0.0,0.0
3,1,4,4,12,3.0,0.0,0,0,75.0,50,12,38,0,32.0,0.0,13.0,Female,2.0,7.0,Past semesters,Business,1,0,Base study,Main,,,,Yes,25.0,4,0,0.0,0.0
4,1,5,5,12,3.0,0.0,0,0,75.0,74,6,68,0,38.0,0.0,12.0,Female,2.0,7.0,Past semesters,Business,1,0,Base study,Main,,,,Yes,1.0,5,0,0.0,0.0
5,1,6,6,12,3.0,0.0,0,0,75.0,40,79,0,39,68.0,0.0,6.0,Female,2.0,7.0,Past semesters,Business,1,0,Base study,Main,,,,Yes,35.0,6,0,0.0,0.0
6,1,7,7,12,3.0,0.0,0,0,75.0,80,52,28,0,0.0,39.0,79.0,Female,2.0,7.0,Past semesters,Business,1,0,Base study,Main,,,,Yes,5.0,7,0,0.0,0.0
7,1,8,8,12,3.0,0.0,0,0,75.0,60,78,0,18,28.0,0.0,52.0,Female,2.0,7.0,Past semesters,Business,1,0,Base study,Main,,,,Yes,15.0,8,0,0.0,0.0
8,1,9,9,12,3.0,0.0,0,0,75.0,70,6,64,0,0.0,18.0,78.0,Female,2.0,7.0,Past semesters,Business,1,0,Base study,Main,,,,Yes,5.0,9,0,0.0,0.0
9,1,10,10,12,3.0,0.0,0,0,75.0,65,86,0,21,64.0,0.0,6.0,Female,2.0,7.0,Past semesters,Business,1,0,Base study,Main,,,,Yes,10.0,10,0,0.0,0.0
10,1,11,11,12,3.0,0.0,0,0,75.0,60,7,53,0,0.0,21.0,86.0,Female,2.0,7.0,Past semesters,Business,1,0,Base study,Main,,,,Yes,15.0,11,0,0.0,0.0
11,1,12,12,12,3.0,0.0,0,0,75.0,50,64,0,14,53.0,0.0,7.0,Female,2.0,7.0,Past semesters,Business,1,0,Base study,Main,,,,Yes,25.0,12,0,0.0,0.0
12,1,13,13,12,3.0,0.0,0,0,75.0,65,4,61,0,0.0,14.0,64.0,Female,2.0,7.0,Past semesters,Business,1,0,Base study,Main,,,,Yes,10.0,13,0,0.0,0.0
13,1,14,14,12,3.0,0.0,0,0,75.0,60,65,0,5,61.0,0.0,4.0,Female,2.0,7.0,Past semesters,Business,1,0,Base study,Main,,,,Yes,15.0,14,0,0.0,0.0
14,1,15,15,12,3.0,0.0,0,0,75.0,20,5,15,0,0.0,5.0,65.0,Female,2.0,7.0,Past semesters,Business,1,0,Base study,Main,,,,Yes,55.0,15,0,0.0,0.0
15,1,16,16,12,3.0,0.0,0,0,75.0,40,28,12,0,15.0,0.0,5.0,Female,2.0,7.0,Past semesters,Business,1,0,Base study,Main,,,,Yes,35.0,16,0,0.0,0.0
16,1,17,17,12,3.0,0.0,0,0,75.0,70,81,0,11,12.0,0.0,28.0,Female,2.0,7.0,Past semesters,Business,1,0,Base study,Main,,,,Yes,5.0,17,0,0.0,0.0
17,1,18,18,12,3.0,0.0,0,0,75.0,34,18,16,0,0.0,11.0,81.0,Female,2.0,7.0,Past semesters,Business,1,0,Base study,Main,,,,Yes,41.0,18,0,0.0,0.0
18,1,19,19,12,3.0,0.0,0,0,75.0,58,21,37,0,16.0,0.0,18.0,Female,2.0,7.0,Past semesters,Business,1,0,Base study,Main,,,,Yes,17.0,19,0,0.0,0.0
19,1,20,20,12,3.0,0.0,0,0,75.0,66,35,31,0,37.0,0.0,21.0,Female,2.0,7.0,Past semesters,Business,1,0,Base study,Main,,,,Yes,9.0,20,0,0.0,0.0
20,1,21,21,12,3.0,0.0,0,0,75.0,48,16,32,0,31.0,0.0,35.0,Female,2.0,7.0,Past semesters,Business,1,0,Base study,Main,,,,Yes,27.0,21,0,0.0,0.0
21,1,22,22,12,3.0,0.0,0,0,75.0,65,68,0,3,32.0,0.0,16.0,Female,2.0,7.0,Past semesters,Business,1,0,Base study,Main,,,,Yes,10.0,22,0,0.0,0.0
22,1,23,23,12,3.0,0.0,0,0,75.0,68,78,0,10,0.0,3.0,68.0,Female,2.0,7.0,Past semesters,Business,1,0,Base study,Main,,,,Yes,7.0,23,0,0.0,0.0
23,1,24,24,12,3.0,0.0,0,0,75.0,69,4,65,0,0.0,10.0,78.0,Female,2.0,7.0,Past semesters,Business,1,0,Base study,Main,,,,Yes,6.0,24,0,0.0,0.0
24,1,25,25,12,3.0,0.0,0,0,75.0,45,85,0,40,65.0,0.0,4.0,Female,2.0,7.0,Past semesters,Business,1,0,Base study,Main,,,,Yes,30.0,25,0,0.0,0.0
25,1,26,26,12,3.0,0.0,0,0,75.0,55,81,0,26,0.0,40.0,85.0,Female,2.0,7.0,Past semesters,Business,1,0,Base study,Main,,,,Yes,20.0,26,0,0.0,0.0
26,1,27,27,12,3.0,0.0,0,0,75.0,62,61,1,0,0.0,26.0,81.0,Female,2.0,7.0,Past semesters,Business,1,0,Base study,Main,,,,Yes,13.0,27,0,0.0,0.0
27,1,28,28,12,3.0,0.0,0,0,75.0,60,93,0,33,1.0,0.0,61.0,Female,2.0,7.0,Past semesters,Business,1,0,Base study,Main,,,,Yes,15.0,28,0,0.0,0.0
28,1,29,29,12,3.0,0.0,0,0,75.0,28,24,4,0,0.0,33.0,93.0,Female,2.0,7.0,Past semesters,Business,1,0,Base study,Main,,,,Yes,47.0,29,0,0.0,0.0
29,1,30,30,12,3.0,0.0,0,0,75.0,50,80,0,30,4.0,0.0,24.0,Female,2.0,7.0,Past semesters,Business,1,0,Base study,Main,,,,Yes,25.0,30,0,0.0,0.0
30,2,1,1,12,3.0,0.0,0,0,75.0,30,44,0,14,,,,Female,5.0,8.0,Currently attending,Business,1,0,Base study,Main,,,,Yes,45.0,1,1,0.0,0.0
31,2,2,2,12,3.0,0.0,0,0,75.0,35,6,29,0,0.0,14.0,44.0,Female,5.0,8.0,Currently attending,Business,1,0,Base study,Main,,,,Yes,40.0,2,1,0.0,0.0
32,2,3,3,12,3.0,0.0,0,0,75.0,40,43,0,3,29.0,0.0,6.0,Female,5.0,8.0,Currently attending,Business,1,0,Base study,Main,,,,Yes,35.0,3,1,0.0,0.0
33,2,4,4,12,3.0,0.0,0,0,75.0,10,78,0,68,0.0,3.0,43.0,Female,5.0,8.0,Currently attending,Business,1,0,Base study,Main,,,,Yes,65.0,4,1,0.0,0.0
34,2,5,5,12,3.0,0.0,0,0,75.0,50,97,0,47,0.0,68.0,78.0,Female,5.0,8.0,Currently attending,Business,1,0,Base study,Main,,,,Yes,25.0,5,1,0.0,0.0
35,2,6,6,12,3.0,0.0,0,0,75.0,30,92,0,62,0.0,47.0,97.0,Female,5.0,8.0,Currently attending,Business,1,0,Base study,Main,,,,Yes,45.0,6,1,0.0,0.0
36,2,7,7,12,3.0,0.0,0,0,75.0,70,25,45,0,0.0,62.0,92.0,Female,5.0,8.0,Currently attending,Business,1,0,Base study,Main,,,,Yes,5.0,7,1,0.0,0.0
37,2,8,8,12,3.0,0.0,0,0,75.0,30,61,0,31,45.0,0.0,25.0,Female,5.0,8.0,Currently attending,Business,1,0,Base study,Main,,,,Yes,45.0,8,1,0.0,0.0
38,2,9,9,12,3.0,0.0,0,0,75.0,20,10,10,0,0.0,31.0,61.0,Female,5.0,8.0,Currently attending,Business,1,0,Base study,Main,,,,Yes,55.0,9,1,0.0,0.0
39,2,10,10,12,3.0,0.0,0,0,75.0,40,60,0,20,10.0,0.0,10.0,Female,5.0,8.0,Currently attending,Business,1,0,Base study,Main,,,,Yes,35.0,10,1,0.0,0.0
40,2,11,11,12,3.0,0.0,0,0,75.0,40,31,9,0,0.0,20.0,60.0,Female,5.0,8.0,Currently attending,Business,1,0,Base study,Main,,,,Yes,35.0,11,1,0.0,0.0
41,2,12,12,12,3.0,0.0,0,0,75.0,50,67,0,17,9.0,0.0,31.0,Female,5.0,8.0,Currently attending,Business,1,0,Base study,Main,,,,Yes,25.0,12,1,0.0,0.0
42,2,13,13,12,3.0,0.0,0,0,75.0,40,33,7,0,0.0,17.0,67.0,Female,5.0,8.0,Currently attending,Business,1,0,Base study,Main,,,,Yes,35.0,13,1,0.0,0.0
43,2,14,14,12,3.0,0.0,0,0,75.0,60,73,0,13,7.0,0.0,33.0,Female,5.0,8.0,Currently attending,Business,1,0,Base study,Main,,,,Yes,15.0,14,1,0.0,0.0
44,2,15,15,12,3.0,0.0,0,0,75.0,30,66,0,36,0.0,13.0,73.0,Female,5.0,8.0,Currently attending,Business,1,0,Base study,Main,,,,Yes,45.0,15,1,0.0,0.0
45,2,16,16,12,3.0,0.0,0,0,75.0,40,1,39,0,0.0,36.0,66.0,Female,5.0,8.0,Currently attending,Business,1,0,Base study,Main,,,,Yes,35.0,16,1,0.0,0.0
46,2,17,17,12,3.0,0.0,0,0,75.0,60,38,22,0,39.0,0.0,1.0,Female,5.0,8.0,Currently attending,Business,1,0,Base study,Main,,,,Yes,15.0,17,1,0.0,0.0
47,2,18,18,12,3.0,0.0,0,0,75.0,60,83,0,23,22.0,0.0,38.0,Female,5.0,8.0,Currently attending,Business,1,0,Base study,Main,,,,Yes,15.0,18,1,0.0,0.0
48,2,19,19,12,3.0,0.0,0,0,75.0,50,44,6,0,0.0,23.0,83.0,Female,5.0,8.0,Currently attending,Business,1,0,Base study,Main,,,,Yes,25.0,19,1,0.0,0.0
49,2,20,20,12,3.0,0.0,0,0,75.0,70,34,36,0,6.0,0.0,44.0,Female,5.0,8.0,Currently attending,Business,1,0,Base study,Main,,,,Yes,5.0,20,1,0.0,0.0
50,2,21,21,12,3.0,0.0,0,0,75.0,50,54,0,4,36.0,0.0,34.0,Female,5.0,8.0,Currently attending,Business,1,0,Base study,Main,,,,Yes,25.0,21,1,0.0,0.0
51,2,22,22,12,3.0,0.0,0,0,75.0,50,72,0,22,0.0,4.0,54.0,Female,5.0,8.0,Currently attending,Business,1,0,Base study,Main,,,,Yes,25.0,22,1,0.0,0.0
52,2,23,23,12,3.0,0.0,0,0,75.0,50,17,33,0,0.0,22.0,72.0,Female,5.0,8.0,Currently attending,Business,1,0,Base study,Main,,,,Yes,25.0,23,1,0.0,0.0
53,2,24,24,12,3.0,0.0,0,0,75.0,70,25,45,0,33.0,0.0,17.0,Female,5.0,8.0,Currently attending,Business,1,0,Base study,Main,,,,Yes,5.0,24,1,0.0,0.0
54,2,25,25,12,3.0,0.0,0,0,75.0,70,64,6,0,45.0,0.0,25.0,Female,5.0,8.0,Currently attending,Business,1,0,Base study,Main,,,,Yes,5.0,25,1,0.0,0.0
55,2,26,26,12,3.0,0.0,0,0,75.0,60,71,0,11,6.0,0.0,64.0,Female,5.0,8.0,Currently attending,Business,1,0,Base study,Main,,,,Yes,15.0,26,1,0.0,0.0
56,2,27,27,12,3.0,0.0,0,0,75.0,50,68,0,18,0.0,11.0,71.0,Female,5.0,8.0,Currently attending,Business,1,0,Base study,Main,,,,Yes,25.0,27,1,0.0,0.0
57,2,28,28,12,3.0,0.0,0,0,75.0,40,57,0,17,0.0,18.0,68.0,Female,5.0,8.0,Currently attending,Business,1,0,Base study,Main,,,,Yes,35.0,28,1,0.0,0.0
58,2,29,29,12,3.0,0.0,0,0,75.0,50,54,0,4,0.0,17.0,57.0,Female,5.0,8.0,Currently attending,Business,1,0,Base study,Main,,,,Yes,25.0,29,1,0.0,0.0
59,2,30,30,12,3.0,0.0,0,0,75.0,70,7,63,0,0.0,4.0,54.0,Female,5.0,8.0,Currently attending,Business,1,0,Base study,Main,,,,Yes,5.0,30,1,0.0,0.0
60,3,1,1,12,3.0,1.0,12,0,75.0,60,55,5,0,,,,Male,7.0,8.0,No,Economy,4,1,Base study,Main,,,Breakeven,No,15.0,1,2,0.958940397,0.958940397
61,3,2,2,12,3.0,1.0,12,0,75.0,75,14,61,0,5.0,0.0,55.0,Male,7.0,8.0,No,Economy,4,1,Base study,Main,,,Breakeven,No,0.0,2,2,1.0,1.0
62,3,3,3,12,3.0,1.0,12,0,75.0,40,54,0,14,61.0,0.0,14.0,Male,7.0,8.0,No,Economy,4,1,Base study,Main,,,Breakeven,No,35.0,3,2,0.7805739509999999,0.7805739509999999
63,3,4,4,12,3.0,1.0,12,0,75.0,47,80,0,33,0.0,14.0,54.0,Male,7.0,8.0,No,Economy,4,1,Base study,Main,,,Breakeven,No,28.0,4,2,0.859072848,0.859072848
64,3,5,5,12,3.0,1.0,12,0,75.0,60,1,59,0,0.0,33.0,80.0,Male,7.0,8.0,No,Economy,4,1,Base study,Main,,,Breakeven,No,15.0,5,2,0.958940397,0.958940397
65,3,6,6,12,3.0,1.0,12,0,75.0,40,100,0,60,59.0,0.0,1.0,Male,7.0,8.0,No,Economy,4,1,Base study,Main,,,Breakeven,No,35.0,6,2,0.7805739509999999,0.7805739509999999
66,3,7,7,12,3.0,1.0,12,0,75.0,80,97,0,17,0.0,60.0,100.0,Male,7.0,8.0,No,Economy,4,1,Base study,Main,,,Breakeven,No,5.0,7,2,0.99602649,0.99602649
67,3,8,8,12,3.0,1.0,12,0,75.0,30,94,0,64,0.0,17.0,97.0,Male,7.0,8.0,No,Economy,4,1,Base study,Main,,,Breakeven,No,45.0,8,2,0.638410596,0.638410596
68,3,9,9,12,3.0,1.0,12,0,75.0,85,15,70,0,0.0,64.0,94.0,Male,7.0,8.0,No,Economy,4,1,Base study,Main,,,Breakeven,No,10.0,9,2,0.9832229579999999,0.9832229579999999
69,3,10,10,12,3.0,1.0,12,0,75.0,35,66,0,31,70.0,0.0,15.0,Male,7.0,8.0,No,Economy,4,1,Base study,Main,,,Breakeven,No,40.0,10,2,0.713907285,0.713907285
70,3,11,11,12,3.0,1.0,12,0,75.0,55,87,0,32,0.0,31.0,66.0,Male,7.0,8.0,No,Economy,4,1,Base study,Main,,,Breakeven,No,20.0,11,2,0.927593819,0.927593819
71,3,12,12,12,3.0,1.0,12,0,75.0,15,100,0,85,0.0,32.0,87.0,Male,7.0,8.0,No,Economy,4,1,Base study,Main,,,Breakeven,No,60.0,12,2,0.358940397,0.358940397
72,3,13,13,12,3.0,1.0,12,0,75.0,10,23,0,13,0.0,85.0,100.0,Male,7.0,8.0,No,Economy,4,1,Base study,Main,,,Breakeven,No,65.0,13,2,0.24812362,0.24812362
73,3,14,14,12,3.0,1.0,12,0,75.0,74,56,18,0,0.0,13.0,23.0,Male,7.0,8.0,No,Economy,4,1,Base study,Main,,,Breakeven,No,1.0,14,2,0.999735099,0.999735099
74,3,15,15,12,3.0,1.0,12,0,75.0,7,92,0,85,18.0,0.0,56.0,Male,7.0,8.0,No,Economy,4,1,Base study,Main,,,Breakeven,No,68.0,15,2,0.177395143,0.177395143
75,3,16,16,12,3.0,1.0,12,0,75.0,74,85,0,11,0.0,85.0,92.0,Male,7.0,8.0,No,Economy,4,1,Base study,Main,,,Breakeven,No,1.0,16,2,0.999735099,0.999735099
76,3,17,17,12,3.0,1.0,12,0,75.0,47,75,0,28,0.0,11.0,85.0,Male,7.0,8.0,No,Economy,4,1,Base study,Main,,,Breakeven,No,28.0,17,2,0.859072848,0.859072848
77,3,18,18,12,3.0,1.0,12,0,75.0,80,62,18,0,0.0,28.0,75.0,Male,7.0,8.0,No,Economy,4,1,Base study,Main,,,Breakeven,No,5.0,18,2,0.99602649,0.99602649
78,3,19,19,12,3.0,1.0,12,0,75.0,29,35,0,6,18.0,0.0,62.0,Male,7.0,8.0,No,Economy,4,1,Base study,Main,,,Breakeven,No,46.0,19,2,0.622251656,0.622251656
79,3,20,20,12,3.0,1.0,12,0,75.0,77,19,58,0,0.0,6.0,35.0,Male,7.0,8.0,No,Economy,4,1,Base study,Main,,,Breakeven,No,2.0,20,2,0.9994701990000001,0.9994701990000001
80,3,21,21,12,3.0,1.0,12,0,75.0,50,98,0,48,58.0,0.0,19.0,Male,7.0,8.0,No,Economy,4,1,Base study,Main,,,Breakeven,No,25.0,21,2,0.887417219,0.887417219
81,3,22,22,12,3.0,1.0,12,0,75.0,50,87,0,37,0.0,48.0,98.0,Male,7.0,8.0,No,Economy,4,1,Base study,Main,,,Breakeven,No,25.0,22,2,0.887417219,0.887417219
82,3,23,23,12,3.0,1.0,12,0,75.0,55,97,0,42,0.0,37.0,87.0,Male,7.0,8.0,No,Economy,4,1,Base study,Main,,,Breakeven,No,20.0,23,2,0.927593819,0.927593819
83,3,24,24,12,3.0,1.0,12,0,75.0,80,14,66,0,0.0,42.0,97.0,Male,7.0,8.0,No,Economy,4,1,Base study,Main,,,Breakeven,No,5.0,24,2,0.99602649,0.99602649
84,3,25,25,12,3.0,1.0,12,0,75.0,33,63,0,30,66.0,0.0,14.0,Male,7.0,8.0,No,Economy,4,1,Base study,Main,,,Breakeven,No,42.0,25,2,0.684768212,0.684768212
85,3,26,26,12,3.0,1.0,12,0,75.0,45,70,0,25,0.0,30.0,63.0,Male,7.0,8.0,No,Economy,4,1,Base study,Main,,,Breakeven,No,30.0,26,2,0.8384105959999999,0.8384105959999999
86,3,27,27,12,3.0,1.0,12,0,75.0,67,98,0,31,0.0,25.0,70.0,Male,7.0,8.0,No,Economy,4,1,Base study,Main,,,Breakeven,No,8.0,27,2,0.98799117,0.98799117
87,3,28,28,12,3.0,1.0,12,0,75.0,93,25,68,0,0.0,31.0,98.0,Male,7.0,8.0,No,Economy,4,1,Base study,Main,,,Breakeven,No,18.0,28,2,0.9443708609999999,0.9443708609999999
88,3,29,29,12,3.0,1.0,12,0,75.0,64,77,0,13,68.0,0.0,25.0,Male,7.0,8.0,No,Economy,4,1,Base study,Main,,,Breakeven,No,11.0,29,2,0.9776600440000001,0.9776600440000001
89,3,30,30,12,3.0,1.0,12,0,75.0,89,42,47,0,0.0,13.0,77.0,Male,7.0,8.0,No,Economy,4,1,Base study,Main,,,Breakeven,No,14.0,30,2,0.966622517,0.966622517
90,4,1,1,12,3.0,1.0,12,0,75.0,90,11,79,0,,,,Male,3.0,5.0,No,Other Eng,4,1,Base study,Main,,,Breakeven,No,15.0,1,3,0.961589404,0.961589404
91,4,2,2,12,3.0,1.0,12,0,75.0,6,38,0,32,79.0,0.0,11.0,Male,3.0,5.0,No,Other Eng,4,1,Base study,Main,,,Breakeven,No,69.0,2,3,0.153112583,0.153112583
92,4,3,3,12,3.0,1.0,12,0,75.0,15,27,0,12,0.0,32.0,38.0,Male,3.0,5.0,No,Other Eng,4,1,Base study,Main,,,Breakeven,No,60.0,3,3,0.358940397,0.358940397
93,4,4,4,12,3.0,1.0,12,0,75.0,19,68,0,49,0.0,12.0,27.0,Male,3.0,5.0,No,Other Eng,4,1,Base study,Main,,,Breakeven,No,56.0,4,3,0.441236203,0.441236203
94,4,5,5,12,3.0,1.0,12,0,75.0,30,75,0,45,0.0,49.0,68.0,Male,3.0,5.0,No,Other Eng,4,1,Base study,Main,,,Breakeven,No,45.0,5,3,0.638410596,0.638410596
95,4,6,6,12,3.0,1.0,12,0,75.0,50,20,30,0,0.0,45.0,75.0,Male,3.0,5.0,No,Other Eng,4,1,Base study,Main,,,Breakeven,No,25.0,6,3,0.887417219,0.887417219
96,4,7,7,12,3.0,1.0,12,0,75.0,14,81,0,67,30.0,0.0,20.0,Male,3.0,5.0,No,Other Eng,4,1,Base study,Main,,,Breakeven,No,61.0,7,3,0.33748344399999997,0.33748344399999997
97,4,8,8,12,3.0,1.0,12,0,75.0,19,1,18,0,0.0,67.0,81.0,Male,3.0,5.0,No,Other Eng,4,1,Base study,Main,,,Breakeven,No,56.0,8,3,0.441236203,0.441236203
98,4,9,9,12,3.0,1.0,12,0,75.0,10,66,0,56,18.0,0.0,1.0,Male,3.0,5.0,No,Other Eng,4,1,Base study,Main,,,Breakeven,No,65.0,9,3,0.24812362,0.24812362
99,4,10,10,12,3.0,1.0,12,0,75.0,17,3,14,0,0.0,56.0,66.0,Male,3.0,5.0,No,Other Eng,4,1,Base study,Main,,,Breakeven,No,58.0,10,3,0.400794702,0.400794702
100,4,11,11,12,3.0,1.0,12,0,75.0,15,74,0,59,14.0,0.0,3.0,Male,3.0,5.0,No,Other Eng,4,1,Base study,Main,,,Breakeven,No,60.0,11,3,0.358940397,0.358940397
101,4,12,12,12,3.0,1.0,12,0,75.0,7,5,2,0,0.0,59.0,74.0,Male,3.0,5.0,No,Other Eng,4,1,Base study,Main,,,Breakeven,No,68.0,12,3,0.177395143,0.177395143
102,4,13,13,12,3.0,1.0,12,0,75.0,50,31,19,0,2.0,0.0,5.0,Male,3.0,5.0,No,Other Eng,4,1,Base study,Main,,,Breakeven,No,25.0,13,3,0.887417219,0.887417219
103,4,14,14,12,3.0,1.0,12,0,75.0,5,26,0,21,19.0,0.0,31.0,Male,3.0,5.0,No,Other Eng,4,1,Base study,Main,,,Breakeven,No,70.0,14,3,0.128476821,0.128476821
104,4,15,15,12,3.0,1.0,12,0,75.0,10,30,0,20,0.0,21.0,26.0,Male,3.0,5.0,No,Other Eng,4,1,Base study,Main,,,Breakeven,No,65.0,15,3,0.24812362,0.24812362
105,4,16,16,12,3.0,1.0,12,0,75.0,20,10,10,0,0.0,20.0,30.0,Male,3.0,5.0,No,Other Eng,4,1,Base study,Main,,,Breakeven,No,55.0,16,3,0.460927152,0.460927152
106,4,17,17,12,3.0,1.0,12,0,75.0,20,70,0,50,10.0,0.0,10.0,Male,3.0,5.0,No,Other Eng,4,1,Base study,Main,,,Breakeven,No,55.0,17,3,0.460927152,0.460927152
107,4,18,18,12,3.0,1.0,12,0,75.0,20,83,0,63,0.0,50.0,70.0,Male,3.0,5.0,No,Other Eng,4,1,Base study,Main,,,Breakeven,No,55.0,18,3,0.460927152,0.460927152
108,4,19,19,12,3.0,1.0,12,0,75.0,30,42,0,12,0.0,63.0,83.0,Male,3.0,5.0,No,Other Eng,4,1,Base study,Main,,,Breakeven,No,45.0,19,3,0.638410596,0.638410596
109,4,20,20,12,3.0,1.0,12,0,75.0,20,48,0,28,0.0,12.0,42.0,Male,3.0,5.0,No,Other Eng,4,1,Base study,Main,,,Breakeven,No,55.0,20,3,0.460927152,0.460927152
110,4,21,21,12,3.0,1.0,12,0,75.0,20,99,0,79,0.0,28.0,48.0,Male,3.0,5.0,No,Other Eng,4,1,Base study,Main,,,Breakeven,No,55.0,21,3,0.460927152,0.460927152
111,4,22,22,12,3.0,1.0,12,0,75.0,20,60,0,40,0.0,79.0,99.0,Male,3.0,5.0,No,Other Eng,4,1,Base study,Main,,,Breakeven,No,55.0,22,3,0.460927152,0.460927152
112,4,23,23,12,3.0,1.0,12,0,75.0,20,20,0,0,0.0,40.0,60.0,Male,3.0,5.0,No,Other Eng,4,1,Base study,Main,,,Breakeven,No,55.0,23,3,0.460927152,0.460927152
113,4,24,24,12,3.0,1.0,12,0,75.0,20,13,7,0,0.0,0.0,20.0,Male,3.0,5.0,No,Other Eng,4,1,Base study,Main,,,Breakeven,No,55.0,24,3,0.460927152,0.460927152
114,4,25,25,12,3.0,1.0,12,0,75.0,15,84,0,69,7.0,0.0,13.0,Male,3.0,5.0,No,Other Eng,4,1,Base study,Main,,,Breakeven,No,60.0,25,3,0.358940397,0.358940397
115,4,26,26,12,3.0,1.0,12,0,75.0,30,67,0,37,0.0,69.0,84.0,Male,3.0,5.0,No,Other Eng,4,1,Base study,Main,,,Breakeven,No,45.0,26,3,0.638410596,0.638410596
116,4,27,27,12,3.0,1.0,12,0,75.0,20,95,0,75,0.0,37.0,67.0,Male,3.0,5.0,No,Other Eng,4,1,Base study,Main,,,Breakeven,No,55.0,27,3,0.460927152,0.460927152
117,4,28,28,12,3.0,1.0,12,0,75.0,20,17,3,0,0.0,75.0,95.0,Male,3.0,5.0,No,Other Eng,4,1,Base study,Main,,,Breakeven,No,55.0,28,3,0.460927152,0.460927152
118,4,29,29,12,3.0,1.0,12,0,75.0,20,56,0,36,3.0,0.0,17.0,Male,3.0,5.0,No,Other Eng,4,1,Base study,Main,,,Breakeven,No,55.0,29,3,0.460927152,0.460927152
119,4,30,30,12,3.0,1.0,12,0,75.0,20,50,0,30,0.0,36.0,56.0,Male,3.0,5.0,No,Other Eng,4,1,Base study,Main,,,Breakeven,No,55.0,30,3,0.460927152,0.460927152
120,5,1,1,12,3.0,1.0,12,0,75.0,70,44,26,0,,,,Male,7.0,5.0,Past semesters,Business,4,1,Base study,Main,,,Breakeven,Yes,5.0,1,4,0.995143488,0.995143488
121,5,2,2,12,3.0,1.0,12,0,75.0,65,29,36,0,26.0,0.0,44.0,Male,7.0,5.0,Past semesters,Business,4,1,Base study,Main,,,Breakeven,Yes,10.0,2,4,0.9814569540000001,0.9814569540000001
122,5,3,3,12,3.0,1.0,12,0,75.0,50,3,47,0,36.0,0.0,29.0,Male,7.0,5.0,Past semesters,Business,4,1,Base study,Main,,,Breakeven,Yes,25.0,3,4,0.887417219,0.887417219
123,5,4,4,12,3.0,1.0,12,0,75.0,20,69,0,49,47.0,0.0,3.0,Male,7.0,5.0,Past semesters,Business,4,1,Base study,Main,,,Breakeven,Yes,55.0,4,4,0.460927152,0.460927152
124,5,5,5,12,3.0,1.0,12,0,75.0,10,50,0,40,0.0,49.0,69.0,Male,7.0,5.0,Past semesters,Business,4,1,Base study,Main,,,Breakeven,Yes,65.0,5,4,0.24812362,0.24812362
125,5,6,6,12,3.0,1.0,12,0,75.0,40,31,9,0,0.0,40.0,50.0,Male,7.0,5.0,Past semesters,Business,4,1,Base study,Main,,,Breakeven,Yes,35.0,6,4,0.7805739509999999,0.7805739509999999
126,5,7,7,12,3.0,1.0,12,0,75.0,30,92,0,62,9.0,0.0,31.0,Male,7.0,5.0,Past semesters,Business,4,1,Base study,Main,,,Breakeven,Yes,45.0,7,4,0.638410596,0.638410596
127,5,8,8,12,3.0,1.0,12,0,75.0,50,95,0,45,0.0,62.0,92.0,Male,7.0,5.0,Past semesters,Business,4,1,Base study,Main,,,Breakeven,Yes,25.0,8,4,0.887417219,0.887417219
128,5,9,9,12,3.0,1.0,12,0,75.0,30,81,0,51,0.0,45.0,95.0,Male,7.0,5.0,Past semesters,Business,4,1,Base study,Main,,,Breakeven,Yes,45.0,9,4,0.638410596,0.638410596
129,5,10,10,12,3.0,1.0,12,0,75.0,60,8,52,0,0.0,51.0,81.0,Male,7.0,5.0,Past semesters,Business,4,1,Base study,Main,,,Breakeven,Yes,15.0,10,4,0.958940397,0.958940397
130,5,11,11,12,3.0,1.0,12,0,75.0,20,29,0,9,52.0,0.0,8.0,Male,7.0,5.0,Past semesters,Business,4,1,Base study,Main,,,Breakeven,Yes,55.0,11,4,0.460927152,0.460927152
131,5,12,12,12,3.0,1.0,12,0,75.0,30,93,0,63,0.0,9.0,29.0,Male,7.0,5.0,Past semesters,Business,4,1,Base study,Main,,,Breakeven,Yes,45.0,12,4,0.638410596,0.638410596
132,5,13,13,12,3.0,1.0,12,0,75.0,50,87,0,37,0.0,63.0,93.0,Male,7.0,5.0,Past semesters,Business,4,1,Base study,Main,,,Breakeven,Yes,25.0,13,4,0.887417219,0.887417219
133,5,14,14,12,3.0,1.0,12,0,75.0,30,85,0,55,0.0,37.0,87.0,Male,7.0,5.0,Past semesters,Business,4,1,Base study,Main,,,Breakeven,Yes,45.0,14,4,0.638410596,0.638410596
134,5,15,15,12,3.0,1.0,12,0,75.0,20,26,0,6,0.0,55.0,85.0,Male,7.0,5.0,Past semesters,Business,4,1,Base study,Main,,,Breakeven,Yes,55.0,15,4,0.460927152,0.460927152
135,5,16,16,12,3.0,1.0,12,0,75.0,10,25,0,15,0.0,6.0,26.0,Male,7.0,5.0,Past semesters,Business,4,1,Base study,Main,,,Breakeven,Yes,65.0,16,4,0.24812362,0.24812362
136,5,17,17,12,3.0,1.0,12,0,75.0,15,37,0,22,0.0,15.0,25.0,Male,7.0,5.0,Past semesters,Business,4,1,Base study,Main,,,Breakeven,Yes,60.0,17,4,0.358940397,0.358940397
137,5,18,18,12,3.0,1.0,12,0,75.0,20,88,0,68,0.0,22.0,37.0,Male,7.0,5.0,Past semesters,Business,4,1,Base study,Main,,,Breakeven,Yes,55.0,18,4,0.460927152,0.460927152
138,5,19,19,12,3.0,1.0,12,0,75.0,40,71,0,31,0.0,68.0,88.0,Male,7.0,5.0,Past semesters,Business,4,1,Base study,Main,,,Breakeven,Yes,35.0,19,4,0.7805739509999999,0.7805739509999999
139,5,20,20,12,3.0,1.0,12,0,75.0,30,29,1,0,0.0,31.0,71.0,Male,7.0,5.0,Past semesters,Business,4,1,Base study,Main,,,Breakeven,Yes,45.0,20,4,0.638410596,0.638410596
140,5,21,21,12,3.0,1.0,12,0,75.0,25,89,0,64,1.0,0.0,29.0,Male,7.0,5.0,Past semesters,Business,4,1,Base study,Main,,,Breakeven,Yes,50.0,21,4,0.554083885,0.554083885
141,5,22,22,12,3.0,1.0,12,0,75.0,40,78,0,38,0.0,64.0,89.0,Male,7.0,5.0,Past semesters,Business,4,1,Base study,Main,,,Breakeven,Yes,35.0,22,4,0.7805739509999999,0.7805739509999999
142,5,23,23,12,3.0,1.0,12,0,75.0,30,12,18,0,0.0,38.0,78.0,Male,7.0,5.0,Past semesters,Business,4,1,Base study,Main,,,Breakeven,Yes,45.0,23,4,0.638410596,0.638410596
143,5,24,24,12,3.0,1.0,12,0,75.0,20,69,0,49,18.0,0.0,12.0,Male,7.0,5.0,Past semesters,Business,4,1,Base study,Main,,,Breakeven,Yes,55.0,24,4,0.460927152,0.460927152
144,5,25,25,12,3.0,1.0,12,0,75.0,35,65,0,30,0.0,49.0,69.0,Male,7.0,5.0,Past semesters,Business,4,1,Base study,Main,,,Breakeven,Yes,40.0,25,4,0.713907285,0.713907285
145,5,26,26,12,3.0,1.0,12,0,75.0,30,19,11,0,0.0,30.0,65.0,Male,7.0,5.0,Past semesters,Business,4,1,Base study,Main,,,Breakeven,Yes,45.0,26,4,0.638410596,0.638410596
146,5,27,27,12,3.0,1.0,12,0,75.0,30,56,0,26,11.0,0.0,19.0,Male,7.0,5.0,Past semesters,Business,4,1,Base study,Main,,,Breakeven,Yes,45.0,27,4,0.638410596,0.638410596
147,5,28,28,12,3.0,1.0,12,0,75.0,35,63,0,28,0.0,26.0,56.0,Male,7.0,5.0,Past semesters,Business,4,1,Base study,Main,,,Breakeven,Yes,40.0,28,4,0.713907285,0.713907285
148,5,29,29,12,3.0,1.0,12,0,75.0,30,10,20,0,0.0,28.0,63.0,Male,7.0,5.0,Past semesters,Business,4,1,Base study,Main,,,Breakeven,Yes,45.0,29,4,0.638410596,0.638410596
149,5,30,30,12,3.0,1.0,12,0,75.0,30,45,0,15,20.0,0.0,10.0,Male,7.0,5.0,Past semesters,Business,4,1,Base study,Main,,,Breakeven,Yes,45.0,30,4,0.638410596,0.638410596
150,6,1,1,12,3.0,1.0,12,0,75.0,80,100,0,20,,,,Male,5.0,8.0,Past semesters,Business,4,1,Base study,Main,,,Breakeven,Yes,5.0,1,5,0.99602649,0.99602649
151,6,2,2,12,3.0,1.0,12,0,75.0,100,56,44,0,0.0,20.0,100.0,Male,5.0,8.0,Past semesters,Business,4,1,Base study,Main,,,Breakeven,Yes,25.0,2,5,0.89183223,0.89183223
152,6,3,3,12,3.0,1.0,12,0,75.0,80,60,20,0,44.0,0.0,56.0,Male,5.0,8.0,Past semesters,Business,4,1,Base study,Main,,,Breakeven,Yes,5.0,3,5,0.99602649,0.99602649
153,6,4,4,12,3.0,1.0,12,0,75.0,50,32,18,0,20.0,0.0,60.0,Male,5.0,8.0,Past semesters,Business,4,1,Base study,Main,,,Breakeven,Yes,25.0,4,5,0.887417219,0.887417219
154,6,5,5,12,3.0,1.0,12,0,75.0,20,18,2,0,18.0,0.0,32.0,Male,5.0,8.0,Past semesters,Business,4,1,Base study,Main,,,Breakeven,Yes,55.0,5,5,0.460927152,0.460927152
155,6,6,6,12,3.0,1.0,12,0,75.0,40,93,0,53,2.0,0.0,18.0,Male,5.0,8.0,Past semesters,Business,4,1,Base study,Main,,,Breakeven,Yes,35.0,6,5,0.7805739509999999,0.7805739509999999
156,6,7,7,12,3.0,1.0,12,0,75.0,100,58,42,0,0.0,53.0,93.0,Male,5.0,8.0,Past semesters,Business,4,1,Base study,Main,,,Breakeven,Yes,25.0,7,5,0.89183223,0.89183223
157,6,8,8,12,3.0,1.0,12,0,75.0,80,13,67,0,42.0,0.0,58.0,Male,5.0,8.0,Past semesters,Business,4,1,Base study,Main,,,Breakeven,Yes,5.0,8,5,0.99602649,0.99602649
158,6,9,9,12,3.0,1.0,12,0,75.0,40,27,13,0,67.0,0.0,13.0,Male,5.0,8.0,Past semesters,Business,4,1,Base study,Main,,,Breakeven,Yes,35.0,9,5,0.7805739509999999,0.7805739509999999
159,6,10,10,12,3.0,1.0,12,0,75.0,50,12,38,0,13.0,0.0,27.0,Male,5.0,8.0,Past semesters,Business,4,1,Base study,Main,,,Breakeven,Yes,25.0,10,5,0.887417219,0.887417219
160,6,11,11,12,3.0,1.0,12,0,75.0,60,23,37,0,38.0,0.0,12.0,Male,5.0,8.0,Past semesters,Business,4,1,Base study,Main,,,Breakeven,Yes,15.0,11,5,0.958940397,0.958940397
161,6,12,12,12,3.0,1.0,12,0,75.0,30,66,0,36,37.0,0.0,23.0,Male,5.0,8.0,Past semesters,Business,4,1,Base study,Main,,,Breakeven,Yes,45.0,12,5,0.638410596,0.638410596
162,6,13,13,12,3.0,1.0,12,0,75.0,80,50,30,0,0.0,36.0,66.0,Male,5.0,8.0,Past semesters,Business,4,1,Base study,Main,,,Breakeven,Yes,5.0,13,5,0.99602649,0.99602649
163,6,14,14,12,3.0,1.0,12,0,75.0,80,100,0,20,30.0,0.0,50.0,Male,5.0,8.0,Past semesters,Business,4,1,Base study,Main,,,Breakeven,Yes,5.0,14,5,0.99602649,0.99602649
164,6,15,15,12,3.0,1.0,12,0,75.0,70,81,0,11,0.0,20.0,100.0,Male,5.0,8.0,Past semesters,Business,4,1,Base study,Main,,,Breakeven,Yes,5.0,15,5,0.995143488,0.995143488
165,6,16,16,12,3.0,1.0,12,0,75.0,90,55,35,0,0.0,11.0,81.0,Male,5.0,8.0,Past semesters,Business,4,1,Base study,Main,,,Breakeven,Yes,15.0,16,5,0.961589404,0.961589404
166,6,17,17,12,3.0,1.0,12,0,75.0,60,85,0,25,35.0,0.0,55.0,Male,5.0,8.0,Past semesters,Business,4,1,Base study,Main,,,Breakeven,Yes,15.0,17,5,0.958940397,0.958940397
167,6,18,18,12,3.0,1.0,12,0,75.0,80,81,0,1,0.0,25.0,85.0,Male,5.0,8.0,Past semesters,Business,4,1,Base study,Main,,,Breakeven,Yes,5.0,18,5,0.99602649,0.99602649
168,6,19,19,12,3.0,1.0,12,0,75.0,90,83,7,0,0.0,1.0,81.0,Male,5.0,8.0,Past semesters,Business,4,1,Base study,Main,,,Breakeven,Yes,15.0,19,5,0.961589404,0.961589404
169,6,20,20,12,3.0,1.0,12,0,75.0,70,32,38,0,7.0,0.0,83.0,Male,5.0,8.0,Past semesters,Business,4,1,Base study,Main,,,Breakeven,Yes,5.0,20,5,0.995143488,0.995143488
170,6,21,21,12,3.0,1.0,12,0,75.0,50,77,0,27,38.0,0.0,32.0,Male,5.0,8.0,Past semesters,Business,4,1,Base study,Main,,,Breakeven,Yes,25.0,21,5,0.887417219,0.887417219
171,6,22,22,12,3.0,1.0,12,0,75.0,80,27,53,0,0.0,27.0,77.0,Male,5.0,8.0,Past semesters,Business,4,1,Base study,Main,,,Breakeven,Yes,5.0,22,5,0.99602649,0.99602649
172,6,23,23,12,3.0,1.0,12,0,75.0,80,80,0,0,53.0,0.0,27.0,Male,5.0,8.0,Past semesters,Business,4,1,Base study,Main,,,Breakeven,Yes,5.0,23,5,0.99602649,0.99602649
173,6,24,24,12,3.0,1.0,12,0,75.0,90,2,88,0,0.0,0.0,80.0,Male,5.0,8.0,Past semesters,Business,4,1,Base study,Main,,,Breakeven,Yes,15.0,24,5,0.961589404,0.961589404
174,6,25,25,12,3.0,1.0,12,0,75.0,80,82,0,2,88.0,0.0,2.0,Male,5.0,8.0,Past semesters,Business,4,1,Base study,Main,,,Breakeven,Yes,5.0,25,5,0.99602649,0.99602649
175,6,26,26,12,3.0,1.0,12,0,75.0,90,1,89,0,0.0,2.0,82.0,Male,5.0,8.0,Past semesters,Business,4,1,Base study,Main,,,Breakeven,Yes,15.0,26,5,0.961589404,0.961589404
176,6,27,27,12,3.0,1.0,12,0,75.0,90,99,0,9,89.0,0.0,1.0,Male,5.0,8.0,Past semesters,Business,4,1,Base study,Main,,,Breakeven,Yes,15.0,27,5,0.961589404,0.961589404
177,6,28,28,12,3.0,1.0,12,0,75.0,80,72,8,0,0.0,9.0,99.0,Male,5.0,8.0,Past semesters,Business,4,1,Base study,Main,,,Breakeven,Yes,5.0,28,5,0.99602649,0.99602649
178,6,29,29,12,3.0,1.0,12,0,75.0,95,8,87,0,8.0,0.0,72.0,Male,5.0,8.0,Past semesters,Business,4,1,Base study,Main,,,Breakeven,Yes,20.0,29,5,0.931125828,0.931125828
179,6,30,30,12,3.0,1.0,12,0,75.0,90,7,83,0,87.0,0.0,8.0,Male,5.0,8.0,Past semesters,Business,4,1,Base study,Main,,,Breakeven,Yes,15.0,30,5,0.961589404,0.961589404
180,7,1,1,12,3.0,1.0,12,0,75.0,90,23,67,0,,,,Female,6.0,9.0,Past semesters,Business,4,1,Base study,Main,,,Breakeven,Yes,15.0,1,6,0.961589404,0.961589404
181,7,2,2,12,3.0,1.0,12,0,75.0,50,64,0,14,67.0,0.0,23.0,Female,6.0,9.0,Past semesters,Business,4,1,Base study,Main,,,Breakeven,Yes,25.0,2,6,0.887417219,0.887417219
182,7,3,3,12,3.0,1.0,12,0,75.0,55,25,30,0,0.0,14.0,64.0,Female,6.0,9.0,Past semesters,Business,4,1,Base study,Main,,,Breakeven,Yes,20.0,3,6,0.927593819,0.927593819
183,7,4,4,12,3.0,1.0,12,0,75.0,50,63,0,13,30.0,0.0,25.0,Female,6.0,9.0,Past semesters,Business,4,1,Base study,Main,,,Breakeven,Yes,25.0,4,6,0.887417219,0.887417219
184,7,5,5,12,3.0,1.0,12,0,75.0,30,72,0,42,0.0,13.0,63.0,Female,6.0,9.0,Past semesters,Business,4,1,Base study,Main,,,Breakeven,Yes,45.0,5,6,0.638410596,0.638410596
185,7,6,6,12,3.0,1.0,12,0,75.0,50,57,0,7,0.0,42.0,72.0,Female,6.0,9.0,Past semesters,Business,4,1,Base study,Main,,,Breakeven,Yes,25.0,6,6,0.887417219,0.887417219
186,7,7,7,12,3.0,1.0,12,0,75.0,40,22,18,0,0.0,7.0,57.0,Female,6.0,9.0,Past semesters,Business,4,1,Base study,Main,,,Breakeven,Yes,35.0,7,6,0.7805739509999999,0.7805739509999999
187,7,8,8,12,3.0,1.0,12,0,75.0,60,99,0,39,18.0,0.0,22.0,Female,6.0,9.0,Past semesters,Business,4,1,Base study,Main,,,Breakeven,Yes,15.0,8,6,0.958940397,0.958940397
188,7,9,9,12,3.0,1.0,12,0,75.0,63,42,21,0,0.0,39.0,99.0,Female,6.0,9.0,Past semesters,Business,4,1,Base study,Main,,,Breakeven,Yes,12.0,9,6,0.9735099340000001,0.9735099340000001
189,7,10,10,12,3.0,1.0,12,0,75.0,50,5,45,0,21.0,0.0,42.0,Female,6.0,9.0,Past semesters,Business,4,1,Base study,Main,,,Breakeven,Yes,25.0,10,6,0.887417219,0.887417219
190,7,11,11,12,3.0,1.0,12,0,75.0,40,21,19,0,45.0,0.0,5.0,Female,6.0,9.0,Past semesters,Business,4,1,Base study,Main,,,Breakeven,Yes,35.0,11,6,0.7805739509999999,0.7805739509999999
191,7,12,12,12,3.0,1.0,12,0,75.0,50,96,0,46,19.0,0.0,21.0,Female,6.0,9.0,Past semesters,Business,4,1,Base study,Main,,,Breakeven,Yes,25.0,12,6,0.887417219,0.887417219
192,7,13,13,12,3.0,1.0,12,0,75.0,60,29,31,0,0.0,46.0,96.0,Female,6.0,9.0,Past semesters,Business,4,1,Base study,Main,,,Breakeven,Yes,15.0,13,6,0.958940397,0.958940397
193,7,14,14,12,3.0,1.0,12,0,75.0,50,50,0,0,31.0,0.0,29.0,Female,6.0,9.0,Past semesters,Business,4,1,Base study,Main,,,Breakeven,Yes,25.0,14,6,0.887417219,0.887417219
194,7,15,15,12,3.0,1.0,12,0,75.0,50,76,0,26,0.0,0.0,50.0,Female,6.0,9.0,Past semesters,Business,4,1,Base study,Main,,,Breakeven,Yes,25.0,15,6,0.887417219,0.887417219
195,7,16,16,12,3.0,1.0,12,0,75.0,50,13,37,0,0.0,26.0,76.0,Female,6.0,9.0,Past semesters,Business,4,1,Base study,Main,,,Breakeven,Yes,25.0,16,6,0.887417219,0.887417219
196,7,17,17,12,3.0,1.0,12,0,75.0,40,80,0,40,37.0,0.0,13.0,Female,6.0,9.0,Past semesters,Business,4,1,Base study,Main,,,Breakeven,Yes,35.0,17,6,0.7805739509999999,0.7805739509999999
197,7,18,18,12,3.0,1.0,12,0,75.0,50,80,0,30,0.0,40.0,80.0,Female,6.0,9.0,Past semesters,Business,4,1,Base study,Main,,,Breakeven,Yes,25.0,18,6,0.887417219,0.887417219
198,7,19,19,12,3.0,1.0,12,0,75.0,50,92,0,42,0.0,30.0,80.0,Female,6.0,9.0,Past semesters,Business,4,1,Base study,Main,,,Breakeven,Yes,25.0,19,6,0.887417219,0.887417219
199,7,20,20,12,3.0,1.0,12,0,75.0,70,55,15,0,0.0,42.0,92.0,Female,6.0,9.0,Past semesters,Business,4,1,Base study,Main,,,Breakeven,Yes,5.0,20,6,0.995143488,0.995143488
200,7,21,21,12,3.0,1.0,12,0,75.0,70,84,0,14,15.0,0.0,55.0,Female,6.0,9.0,Past semesters,Business,4,1,Base study,Main,,,Breakeven,Yes,5.0,21,6,0.995143488,0.995143488
201,7,22,22,12,3.0,1.0,12,0,75.0,70,47,23,0,0.0,14.0,84.0,Female,6.0,9.0,Past semesters,Business,4,1,Base study,Main,,,Breakeven,Yes,5.0,22,6,0.995143488,0.995143488
202,7,23,23,12,3.0,1.0,12,0,75.0,60,20,40,0,23.0,0.0,47.0,Female,6.0,9.0,Past semesters,Business,4,1,Base study,Main,,,Breakeven,Yes,15.0,23,6,0.958940397,0.958940397
203,7,24,24,12,3.0,1.0,12,0,75.0,60,33,27,0,40.0,0.0,20.0,Female,6.0,9.0,Past semesters,Business,4,1,Base study,Main,,,Breakeven,Yes,15.0,24,6,0.958940397,0.958940397
204,7,25,25,12,3.0,1.0,12,0,75.0,50,26,24,0,27.0,0.0,33.0,Female,6.0,9.0,Past semesters,Business,4,1,Base study,Main,,,Breakeven,Yes,25.0,25,6,0.887417219,0.887417219
205,7,26,26,12,3.0,1.0,12,0,75.0,50,18,32,0,24.0,0.0,26.0,Female,6.0,9.0,Past semesters,Business,4,1,Base study,Main,,,Breakeven,Yes,25.0,26,6,0.887417219,0.887417219
206,7,27,27,12,3.0,1.0,12,0,75.0,50,52,0,2,32.0,0.0,18.0,Female,6.0,9.0,Past semesters,Business,4,1,Base study,Main,,,Breakeven,Yes,25.0,27,6,0.887417219,0.887417219
207,7,28,28,12,3.0,1.0,12,0,75.0,60,32,28,0,0.0,2.0,52.0,Female,6.0,9.0,Past semesters,Business,4,1,Base study,Main,,,Breakeven,Yes,15.0,28,6,0.958940397,0.958940397
208,7,29,29,12,3.0,1.0,12,0,75.0,50,5,45,0,28.0,0.0,32.0,Female,6.0,9.0,Past semesters,Business,4,1,Base study,Main,,,Breakeven,Yes,25.0,29,6,0.887417219,0.887417219
209,7,30,30,12,3.0,1.0,12,0,75.0,40,90,0,50,45.0,0.0,5.0,Female,6.0,9.0,Past semesters,Business,4,1,Base study,Main,,,Breakeven,Yes,35.0,30,6,0.7805739509999999,0.7805739509999999
210,8,1,1,12,3.0,1.0,12,0,75.0,50,68,0,18,,,,Male,5.0,8.0,No,Other Eng,4,1,Base study,Main,,,Breakeven,No,25.0,1,7,0.887417219,0.887417219
211,8,2,2,12,3.0,1.0,12,0,75.0,60,65,0,5,0.0,18.0,68.0,Male,5.0,8.0,No,Other Eng,4,1,Base study,Main,,,Breakeven,No,15.0,2,7,0.958940397,0.958940397
212,8,3,3,12,3.0,1.0,12,0,75.0,65,86,0,21,0.0,5.0,65.0,Male,5.0,8.0,No,Other Eng,4,1,Base study,Main,,,Breakeven,No,10.0,3,7,0.9814569540000001,0.9814569540000001
213,8,4,4,12,3.0,1.0,12,0,75.0,70,66,4,0,0.0,21.0,86.0,Male,5.0,8.0,No,Other Eng,4,1,Base study,Main,,,Breakeven,No,5.0,4,7,0.995143488,0.995143488
214,8,5,5,12,3.0,1.0,12,0,75.0,66,98,0,32,4.0,0.0,66.0,Male,5.0,8.0,No,Other Eng,4,1,Base study,Main,,,Breakeven,No,9.0,5,7,0.984900662,0.984900662
215,8,6,6,12,3.0,1.0,12,0,75.0,85,65,20,0,0.0,32.0,98.0,Male,5.0,8.0,No,Other Eng,4,1,Base study,Main,,,Breakeven,No,10.0,6,7,0.9832229579999999,0.9832229579999999
216,8,7,7,12,3.0,1.0,12,0,75.0,85,91,0,6,20.0,0.0,65.0,Male,5.0,8.0,No,Other Eng,4,1,Base study,Main,,,Breakeven,No,10.0,7,7,0.9832229579999999,0.9832229579999999
217,8,8,8,12,3.0,1.0,12,0,75.0,70,78,0,8,0.0,6.0,91.0,Male,5.0,8.0,No,Other Eng,4,1,Base study,Main,,,Breakeven,No,5.0,8,7,0.995143488,0.995143488
218,8,9,9,12,3.0,1.0,12,0,75.0,70,52,18,0,0.0,8.0,78.0,Male,5.0,8.0,No,Other Eng,4,1,Base study,Main,,,Breakeven,No,5.0,9,7,0.995143488,0.995143488
219,8,10,10,12,3.0,1.0,12,0,75.0,70,22,48,0,18.0,0.0,52.0,Male,5.0,8.0,No,Other Eng,4,1,Base study,Main,,,Breakeven,No,5.0,10,7,0.995143488,0.995143488
220,8,11,11,12,3.0,1.0,12,0,75.0,70,29,41,0,48.0,0.0,22.0,Male,5.0,8.0,No,Other Eng,4,1,Base study,Main,,,Breakeven,No,5.0,11,7,0.995143488,0.995143488
221,8,12,12,12,3.0,1.0,12,0,75.0,50,80,0,30,41.0,0.0,29.0,Male,5.0,8.0,No,Other Eng,4,1,Base study,Main,,,Breakeven,No,25.0,12,7,0.887417219,0.887417219
222,8,13,13,12,3.0,1.0,12,0,75.0,85,96,0,11,0.0,30.0,80.0,Male,5.0,8.0,No,Other Eng,4,1,Base study,Main,,,Breakeven,No,10.0,13,7,0.9832229579999999,0.9832229579999999
223,8,14,14,12,3.0,1.0,12,0,75.0,65,79,0,14,0.0,11.0,96.0,Male,5.0,8.0,No,Other Eng,4,1,Base study,Main,,,Breakeven,No,10.0,14,7,0.9814569540000001,0.9814569540000001
224,8,15,15,12,3.0,1.0,12,0,75.0,79,7,72,0,0.0,14.0,79.0,Male,5.0,8.0,No,Other Eng,4,1,Base study,Main,,,Breakeven,No,4.0,15,7,0.997527594,0.997527594
225,8,16,16,12,3.0,1.0,12,0,75.0,50,94,0,44,72.0,0.0,7.0,Male,5.0,8.0,No,Other Eng,4,1,Base study,Main,,,Breakeven,No,25.0,16,7,0.887417219,0.887417219
226,8,17,17,12,3.0,1.0,12,0,75.0,70,4,66,0,0.0,44.0,94.0,Male,5.0,8.0,No,Other Eng,4,1,Base study,Main,,,Breakeven,No,5.0,17,7,0.995143488,0.995143488
227,8,18,18,12,3.0,1.0,12,0,75.0,85,81,4,0,66.0,0.0,4.0,Male,5.0,8.0,No,Other Eng,4,1,Base study,Main,,,Breakeven,No,10.0,18,7,0.9832229579999999,0.9832229579999999
228,8,19,19,12,3.0,1.0,12,0,75.0,50,42,8,0,4.0,0.0,81.0,Male,5.0,8.0,No,Other Eng,4,1,Base study,Main,,,Breakeven,No,25.0,19,7,0.887417219,0.887417219
229,8,20,20,12,3.0,1.0,12,0,75.0,75,93,0,18,8.0,0.0,42.0,Male,5.0,8.0,No,Other Eng,4,1,Base study,Main,,,Breakeven,No,0.0,20,7,1.0,1.0
230,8,21,21,12,3.0,1.0,12,0,75.0,50,42,8,0,0.0,18.0,93.0,Male,5.0,8.0,No,Other Eng,4,1,Base study,Main,,,Breakeven,No,25.0,21,7,0.887417219,0.887417219
231,8,22,22,12,3.0,1.0,12,0,75.0,80,55,25,0,8.0,0.0,42.0,Male,5.0,8.0,No,Other Eng,4,1,Base study,Main,,,Breakeven,No,5.0,22,7,0.99602649,0.99602649
232,8,23,23,12,3.0,1.0,12,0,75.0,80,37,43,0,25.0,0.0,55.0,Male,5.0,8.0,No,Other Eng,4,1,Base study,Main,,,Breakeven,No,5.0,23,7,0.99602649,0.99602649
233,8,24,24,12,3.0,1.0,12,0,75.0,90,49,41,0,43.0,0.0,37.0,Male,5.0,8.0,No,Other Eng,4,1,Base study,Main,,,Breakeven,No,15.0,24,7,0.961589404,0.961589404
234,8,25,25,12,3.0,1.0,12,0,75.0,85,36,49,0,41.0,0.0,49.0,Male,5.0,8.0,No,Other Eng,4,1,Base study,Main,,,Breakeven,No,10.0,25,7,0.9832229579999999,0.9832229579999999
235,8,26,26,12,3.0,1.0,12,0,75.0,85,54,31,0,49.0,0.0,36.0,Male,5.0,8.0,No,Other Eng,4,1,Base study,Main,,,Breakeven,No,10.0,26,7,0.9832229579999999,0.9832229579999999
236,8,27,27,12,3.0,1.0,12,0,75.0,85,57,28,0,31.0,0.0,54.0,Male,5.0,8.0,No,Other Eng,4,1,Base study,Main,,,Breakeven,No,10.0,27,7,0.9832229579999999,0.9832229579999999
237,8,28,28,12,3.0,1.0,12,0,75.0,70,84,0,14,28.0,0.0,57.0,Male,5.0,8.0,No,Other Eng,4,1,Base study,Main,,,Breakeven,No,5.0,28,7,0.995143488,0.995143488
238,8,29,29,12,3.0,1.0,12,0,75.0,85,71,14,0,0.0,14.0,84.0,Male,5.0,8.0,No,Other Eng,4,1,Base study,Main,,,Breakeven,No,10.0,29,7,0.9832229579999999,0.9832229579999999
239,8,30,30,12,3.0,1.0,12,0,75.0,70,44,26,0,14.0,0.0,71.0,Male,5.0,8.0,No,Other Eng,4,1,Base study,Main,,,Breakeven,No,5.0,30,7,0.995143488,0.995143488
240,9,1,1,12,3.0,1.0,12,0,75.0,50,86,0,36,,,,Male,4.0,6.0,Past semesters,Business,4,1,Base study,Main,,,Breakeven,Yes,25.0,1,8,0.887417219,0.887417219
241,9,2,2,12,3.0,1.0,12,0,75.0,50,77,0,27,0.0,36.0,86.0,Male,4.0,6.0,Past semesters,Business,4,1,Base study,Main,,,Breakeven,Yes,25.0,2,8,0.887417219,0.887417219
242,9,3,3,12,3.0,1.0,12,0,75.0,50,20,30,0,0.0,27.0,77.0,Male,4.0,6.0,Past semesters,Business,4,1,Base study,Main,,,Breakeven,Yes,25.0,3,8,0.887417219,0.887417219
243,9,4,4,12,3.0,1.0,12,0,75.0,50,71,0,21,30.0,0.0,20.0,Male,4.0,6.0,Past semesters,Business,4,1,Base study,Main,,,Breakeven,Yes,25.0,4,8,0.887417219,0.887417219
244,9,5,5,12,3.0,1.0,12,0,75.0,50,78,0,28,0.0,21.0,71.0,Male,4.0,6.0,Past semesters,Business,4,1,Base study,Main,,,Breakeven,Yes,25.0,5,8,0.887417219,0.887417219
245,9,6,6,12,3.0,1.0,12,0,75.0,50,1,49,0,0.0,28.0,78.0,Male,4.0,6.0,Past semesters,Business,4,1,Base study,Main,,,Breakeven,Yes,25.0,6,8,0.887417219,0.887417219
246,9,7,7,12,3.0,1.0,12,0,75.0,50,58,0,8,49.0,0.0,1.0,Male,4.0,6.0,Past semesters,Business,4,1,Base study,Main,,,Breakeven,Yes,25.0,7,8,0.887417219,0.887417219
247,9,8,8,12,3.0,1.0,12,0,75.0,50,5,45,0,0.0,8.0,58.0,Male,4.0,6.0,Past semesters,Business,4,1,Base study,Main,,,Breakeven,Yes,25.0,8,8,0.887417219,0.887417219
248,9,9,9,12,3.0,1.0,12,0,75.0,50,34,16,0,45.0,0.0,5.0,Male,4.0,6.0,Past semesters,Business,4,1,Base study,Main,,,Breakeven,Yes,25.0,9,8,0.887417219,0.887417219
249,9,10,10,12,3.0,1.0,12,0,75.0,50,12,38,0,16.0,0.0,34.0,Male,4.0,6.0,Past semesters,Business,4,1,Base study,Main,,,Breakeven,Yes,25.0,10,8,0.887417219,0.887417219
250,9,11,11,12,3.0,1.0,12,0,75.0,50,17,33,0,38.0,0.0,12.0,Male,4.0,6.0,Past semesters,Business,4,1,Base study,Main,,,Breakeven,Yes,25.0,11,8,0.887417219,0.887417219
251,9,12,12,12,3.0,1.0,12,0,75.0,50,20,30,0,33.0,0.0,17.0,Male,4.0,6.0,Past semesters,Business,4,1,Base study,Main,,,Breakeven,Yes,25.0,12,8,0.887417219,0.887417219
252,9,13,13,12,3.0,1.0,12,0,75.0,50,66,0,16,30.0,0.0,20.0,Male,4.0,6.0,Past semesters,Business,4,1,Base study,Main,,,Breakeven,Yes,25.0,13,8,0.887417219,0.887417219
253,9,14,14,12,3.0,1.0,12,0,75.0,50,30,20,0,0.0,16.0,66.0,Male,4.0,6.0,Past semesters,Business,4,1,Base study,Main,,,Breakeven,Yes,25.0,14,8,0.887417219,0.887417219
254,9,15,15,12,3.0,1.0,12,0,75.0,50,43,7,0,20.0,0.0,30.0,Male,4.0,6.0,Past semesters,Business,4,1,Base study,Main,,,Breakeven,Yes,25.0,15,8,0.887417219,0.887417219
255,9,16,16,12,3.0,1.0,12,0,75.0,50,68,0,18,7.0,0.0,43.0,Male,4.0,6.0,Past semesters,Business,4,1,Base study,Main,,,Breakeven,Yes,25.0,16,8,0.887417219,0.887417219
256,9,17,17,12,3.0,1.0,12,0,75.0,50,7,43,0,0.0,18.0,68.0,Male,4.0,6.0,Past semesters,Business,4,1,Base study,Main,,,Breakeven,Yes,25.0,17,8,0.887417219,0.887417219
257,9,18,18,12,3.0,1.0,12,0,75.0,50,98,0,48,43.0,0.0,7.0,Male,4.0,6.0,Past semesters,Business,4,1,Base study,Main,,,Breakeven,Yes,25.0,18,8,0.887417219,0.887417219
258,9,19,19,12,3.0,1.0,12,0,75.0,50,43,7,0,0.0,48.0,98.0,Male,4.0,6.0,Past semesters,Business,4,1,Base study,Main,,,Breakeven,Yes,25.0,19,8,0.887417219,0.887417219
259,9,20,20,12,3.0,1.0,12,0,75.0,50,32,18,0,7.0,0.0,43.0,Male,4.0,6.0,Past semesters,Business,4,1,Base study,Main,,,Breakeven,Yes,25.0,20,8,0.887417219,0.887417219
260,9,21,21,12,3.0,1.0,12,0,75.0,50,68,0,18,18.0,0.0,32.0,Male,4.0,6.0,Past semesters,Business,4,1,Base study,Main,,,Breakeven,Yes,25.0,21,8,0.887417219,0.887417219
261,9,22,22,12,3.0,1.0,12,0,75.0,50,91,0,41,0.0,18.0,68.0,Male,4.0,6.0,Past semesters,Business,4,1,Base study,Main,,,Breakeven,Yes,25.0,22,8,0.887417219,0.887417219
262,9,23,23,12,3.0,1.0,12,0,75.0,50,97,0,47,0.0,41.0,91.0,Male,4.0,6.0,Past semesters,Business,4,1,Base study,Main,,,Breakeven,Yes,25.0,23,8,0.887417219,0.887417219
263,9,24,24,12,3.0,1.0,12,0,75.0,50,47,3,0,0.0,47.0,97.0,Male,4.0,6.0,Past semesters,Business,4,1,Base study,Main,,,Breakeven,Yes,25.0,24,8,0.887417219,0.887417219
264,9,25,25,12,3.0,1.0,12,0,75.0,50,10,40,0,3.0,0.0,47.0,Male,4.0,6.0,Past semesters,Business,4,1,Base study,Main,,,Breakeven,Yes,25.0,25,8,0.887417219,0.887417219
265,9,26,26,12,3.0,1.0,12,0,75.0,50,100,0,50,40.0,0.0,10.0,Male,4.0,6.0,Past semesters,Business,4,1,Base study,Main,,,Breakeven,Yes,25.0,26,8,0.887417219,0.887417219
266,9,27,27,12,3.0,1.0,12,0,75.0,50,81,0,31,0.0,50.0,100.0,Male,4.0,6.0,Past semesters,Business,4,1,Base study,Main,,,Breakeven,Yes,25.0,27,8,0.887417219,0.887417219
267,9,28,28,12,3.0,1.0,12,0,75.0,50,81,0,31,0.0,31.0,81.0,Male,4.0,6.0,Past semesters,Business,4,1,Base study,Main,,,Breakeven,Yes,25.0,28,8,0.887417219,0.887417219
268,9,29,29,12,3.0,1.0,12,0,75.0,50,65,0,15,0.0,31.0,81.0,Male,4.0,6.0,Past semesters,Business,4,1,Base study,Main,,,Breakeven,Yes,25.0,29,8,0.887417219,0.887417219
269,9,30,30,12,3.0,1.0,12,0,75.0,50,70,0,20,0.0,15.0,65.0,Male,4.0,6.0,Past semesters,Business,4,1,Base study,Main,,,Breakeven,Yes,25.0,30,8,0.887417219,0.887417219
270,10,1,1,12,3.0,1.0,12,0,75.0,20,59,0,39,,,,Female,5.0,7.0,No,Other,4,1,Base study,Main,,,Breakeven,No,55.0,1,9,0.460927152,0.460927152
271,10,2,2,12,3.0,1.0,12,0,75.0,40,51,0,11,0.0,39.0,59.0,Female,5.0,7.0,No,Other,4,1,Base study,Main,,,Breakeven,No,35.0,2,9,0.7805739509999999,0.7805739509999999
272,10,3,3,12,3.0,1.0,12,0,75.0,30,31,0,1,0.0,11.0,51.0,Female,5.0,7.0,No,Other,4,1,Base study,Main,,,Breakeven,No,45.0,3,9,0.638410596,0.638410596
273,10,4,4,12,3.0,1.0,12,0,75.0,40,14,26,0,0.0,1.0,31.0,Female,5.0,7.0,No,Other,4,1,Base study,Main,,,Breakeven,No,35.0,4,9,0.7805739509999999,0.7805739509999999
274,10,5,5,12,3.0,1.0,12,0,75.0,40,45,0,5,26.0,0.0,14.0,Female,5.0,7.0,No,Other,4,1,Base study,Main,,,Breakeven,No,35.0,5,9,0.7805739509999999,0.7805739509999999
275,10,6,6,12,3.0,1.0,12,0,75.0,30,87,0,57,0.0,5.0,45.0,Female,5.0,7.0,No,Other,4,1,Base study,Main,,,Breakeven,No,45.0,6,9,0.638410596,0.638410596
276,10,7,7,12,3.0,1.0,12,0,75.0,50,48,2,0,0.0,57.0,87.0,Female,5.0,7.0,No,Other,4,1,Base study,Main,,,Breakeven,No,25.0,7,9,0.887417219,0.887417219
277,10,8,8,12,3.0,1.0,12,0,75.0,45,71,0,26,2.0,0.0,48.0,Female,5.0,7.0,No,Other,4,1,Base study,Main,,,Breakeven,No,30.0,8,9,0.8384105959999999,0.8384105959999999
278,10,9,9,12,3.0,1.0,12,0,75.0,60,6,54,0,0.0,26.0,71.0,Female,5.0,7.0,No,Other,4,1,Base study,Main,,,Breakeven,No,15.0,9,9,0.958940397,0.958940397
279,10,10,10,12,3.0,1.0,12,0,75.0,50,67,0,17,54.0,0.0,6.0,Female,5.0,7.0,No,Other,4,1,Base study,Main,,,Breakeven,No,25.0,10,9,0.887417219,0.887417219
280,10,11,11,12,3.0,1.0,12,0,75.0,50,55,0,5,0.0,17.0,67.0,Female,5.0,7.0,No,Other,4,1,Base study,Main,,,Breakeven,No,25.0,11,9,0.887417219,0.887417219
281,10,12,12,12,3.0,1.0,12,0,75.0,40,30,10,0,0.0,5.0,55.0,Female,5.0,7.0,No,Other,4,1,Base study,Main,,,Breakeven,No,35.0,12,9,0.7805739509999999,0.7805739509999999
282,10,13,13,12,3.0,1.0,12,0,75.0,45,59,0,14,10.0,0.0,30.0,Female,5.0,7.0,No,Other,4,1,Base study,Main,,,Breakeven,No,30.0,13,9,0.8384105959999999,0.8384105959999999
283,10,14,14,12,3.0,1.0,12,0,75.0,30,29,1,0,0.0,14.0,59.0,Female,5.0,7.0,No,Other,4,1,Base study,Main,,,Breakeven,No,45.0,14,9,0.638410596,0.638410596
284,10,15,15,12,3.0,1.0,12,0,75.0,40,68,0,28,1.0,0.0,29.0,Female,5.0,7.0,No,Other,4,1,Base study,Main,,,Breakeven,No,35.0,15,9,0.7805739509999999,0.7805739509999999
285,10,16,16,12,3.0,1.0,12,0,75.0,50,7,43,0,0.0,28.0,68.0,Female,5.0,7.0,No,Other,4,1,Base study,Main,,,Breakeven,No,25.0,16,9,0.887417219,0.887417219
286,10,17,17,12,3.0,1.0,12,0,75.0,60,60,0,0,43.0,0.0,7.0,Female,5.0,7.0,No,Other,4,1,Base study,Main,,,Breakeven,No,15.0,17,9,0.958940397,0.958940397
287,10,18,18,12,3.0,1.0,12,0,75.0,40,71,0,31,0.0,0.0,60.0,Female,5.0,7.0,No,Other,4,1,Base study,Main,,,Breakeven,No,35.0,18,9,0.7805739509999999,0.7805739509999999
288,10,19,19,12,3.0,1.0,12,0,75.0,50,32,18,0,0.0,31.0,71.0,Female,5.0,7.0,No,Other,4,1,Base study,Main,,,Breakeven,No,25.0,19,9,0.887417219,0.887417219
289,10,20,20,12,3.0,1.0,12,0,75.0,60,28,32,0,18.0,0.0,32.0,Female,5.0,7.0,No,Other,4,1,Base study,Main,,,Breakeven,No,15.0,20,9,0.958940397,0.958940397
290,10,21,21,12,3.0,1.0,12,0,75.0,60,16,44,0,32.0,0.0,28.0,Female,5.0,7.0,No,Other,4,1,Base study,Main,,,Breakeven,No,15.0,21,9,0.958940397,0.958940397
291,10,22,22,12,3.0,1.0,12,0,75.0,50,15,35,0,44.0,0.0,16.0,Female,5.0,7.0,No,Other,4,1,Base study,Main,,,Breakeven,No,25.0,22,9,0.887417219,0.887417219
292,10,23,23,12,3.0,1.0,12,0,75.0,40,73,0,33,35.0,0.0,15.0,Female,5.0,7.0,No,Other,4,1,Base study,Main,,,Breakeven,No,35.0,23,9,0.7805739509999999,0.7805739509999999
293,10,24,24,12,3.0,1.0,12,0,75.0,60,97,0,37,0.0,33.0,73.0,Female,5.0,7.0,No,Other,4,1,Base study,Main,,,Breakeven,No,15.0,24,9,0.958940397,0.958940397
294,10,25,25,12,3.0,1.0,12,0,75.0,70,25,45,0,0.0,37.0,97.0,Female,5.0,7.0,No,Other,4,1,Base study,Main,,,Breakeven,No,5.0,25,9,0.995143488,0.995143488
295,10,26,26,12,3.0,1.0,12,0,75.0,70,2,68,0,45.0,0.0,25.0,Female,5.0,7.0,No,Other,4,1,Base study,Main,,,Breakeven,No,5.0,26,9,0.995143488,0.995143488
296,10,27,27,12,3.0,1.0,12,0,75.0,70,57,13,0,68.0,0.0,2.0,Female,5.0,7.0,No,Other,4,1,Base study,Main,,,Breakeven,No,5.0,27,9,0.995143488,0.995143488
297,10,28,28,12,3.0,1.0,12,0,75.0,60,78,0,18,13.0,0.0,57.0,Female,5.0,7.0,No,Other,4,1,Base study,Main,,,Breakeven,No,15.0,28,9,0.958940397,0.958940397
298,10,29,29,12,3.0,1.0,12,0,75.0,60,39,21,0,0.0,18.0,78.0,Female,5.0,7.0,No,Other,4,1,Base study,Main,,,Breakeven,No,15.0,29,9,0.958940397,0.958940397
299,10,30,30,12,3.0,1.0,12,0,75.0,60,72,0,12,21.0,0.0,39.0,Female,5.0,7.0,No,Other,4,1,Base study,Main,,,Breakeven,No,15.0,30,9,0.958940397,0.958940397
300,11,1,1,12,3.0,1.0,12,0,75.0,69,47,22,0,,,,Male,4.0,5.0,Currently attending,Other Eng,4,1,Base study,Main,,,Breakeven,Yes,6.0,1,10,0.9931125829999999,0.9931125829999999
301,11,2,2,12,3.0,1.0,12,0,75.0,45,89,0,44,22.0,0.0,47.0,Male,4.0,5.0,Currently attending,Other Eng,4,1,Base study,Main,,,Breakeven,Yes,30.0,2,10,0.8384105959999999,0.8384105959999999
302,11,3,3,12,3.0,1.0,12,0,75.0,87,1,86,0,0.0,44.0,89.0,Male,4.0,5.0,Currently attending,Other Eng,4,1,Base study,Main,,,Breakeven,Yes,12.0,3,10,0.975629139,0.975629139
303,11,4,4,12,3.0,1.0,12,0,75.0,30,9,21,0,86.0,0.0,1.0,Male,4.0,5.0,Currently attending,Other Eng,4,1,Base study,Main,,,Breakeven,Yes,45.0,4,10,0.638410596,0.638410596
304,11,5,5,12,3.0,1.0,12,0,75.0,50,62,0,12,21.0,0.0,9.0,Male,4.0,5.0,Currently attending,Other Eng,4,1,Base study,Main,,,Breakeven,Yes,25.0,5,10,0.887417219,0.887417219
305,11,6,6,12,3.0,1.0,12,0,75.0,73,11,62,0,0.0,12.0,62.0,Male,4.0,5.0,Currently attending,Other Eng,4,1,Base study,Main,,,Breakeven,Yes,2.0,6,10,0.999116998,0.999116998
306,11,7,7,12,3.0,1.0,12,0,75.0,16,96,0,80,62.0,0.0,11.0,Male,4.0,5.0,Currently attending,Other Eng,4,1,Base study,Main,,,Breakeven,Yes,59.0,7,10,0.38004415,0.38004415
307,11,8,8,12,3.0,1.0,12,0,75.0,78,66,12,0,0.0,80.0,96.0,Male,4.0,5.0,Currently attending,Other Eng,4,1,Base study,Main,,,Breakeven,Yes,3.0,8,10,0.998675497,0.998675497
308,11,9,9,12,3.0,1.0,12,0,75.0,40,2,38,0,12.0,0.0,66.0,Male,4.0,5.0,Currently attending,Other Eng,4,1,Base study,Main,,,Breakeven,Yes,35.0,9,10,0.7805739509999999,0.7805739509999999
309,11,10,10,12,3.0,1.0,12,0,75.0,20,26,0,6,38.0,0.0,2.0,Male,4.0,5.0,Currently attending,Other Eng,4,1,Base study,Main,,,Breakeven,Yes,55.0,10,10,0.460927152,0.460927152
310,11,11,11,12,3.0,1.0,12,0,75.0,56,12,44,0,0.0,6.0,26.0,Male,4.0,5.0,Currently attending,Other Eng,4,1,Base study,Main,,,Breakeven,Yes,19.0,11,10,0.9345695359999999,0.9345695359999999
311,11,12,12,12,3.0,1.0,12,0,75.0,48,39,9,0,44.0,0.0,12.0,Male,4.0,5.0,Currently attending,Other Eng,4,1,Base study,Main,,,Breakeven,Yes,27.0,12,10,0.8688741720000001,0.8688741720000001
312,11,13,13,12,3.0,1.0,12,0,75.0,66,53,13,0,9.0,0.0,39.0,Male,4.0,5.0,Currently attending,Other Eng,4,1,Base study,Main,,,Breakeven,Yes,9.0,13,10,0.984900662,0.984900662
313,11,14,14,12,3.0,1.0,12,0,75.0,38,16,22,0,13.0,0.0,53.0,Male,4.0,5.0,Currently attending,Other Eng,4,1,Base study,Main,,,Breakeven,Yes,37.0,14,10,0.754966887,0.754966887
314,11,15,15,12,3.0,1.0,12,0,75.0,33,11,22,0,22.0,0.0,16.0,Male,4.0,5.0,Currently attending,Other Eng,4,1,Base study,Main,,,Breakeven,Yes,42.0,15,10,0.684768212,0.684768212
315,11,16,16,12,3.0,1.0,12,0,75.0,52,57,0,5,22.0,0.0,11.0,Male,4.0,5.0,Currently attending,Other Eng,4,1,Base study,Main,,,Breakeven,Yes,23.0,16,10,0.9045474609999999,0.9045474609999999
316,11,17,17,12,3.0,1.0,12,0,75.0,70,15,55,0,0.0,5.0,57.0,Male,4.0,5.0,Currently attending,Other Eng,4,1,Base study,Main,,,Breakeven,Yes,5.0,17,10,0.995143488,0.995143488
317,11,18,18,12,3.0,1.0,12,0,75.0,44,2,42,0,55.0,0.0,15.0,Male,4.0,5.0,Currently attending,Other Eng,4,1,Base study,Main,,,Breakeven,Yes,31.0,18,10,0.827549669,0.827549669
318,11,19,19,12,3.0,1.0,12,0,75.0,28,60,0,32,42.0,0.0,2.0,Male,4.0,5.0,Currently attending,Other Eng,4,1,Base study,Main,,,Breakeven,Yes,47.0,19,10,0.605739514,0.605739514
319,11,20,20,12,3.0,1.0,12,0,75.0,51,59,0,8,0.0,32.0,60.0,Male,4.0,5.0,Currently attending,Other Eng,4,1,Base study,Main,,,Breakeven,Yes,24.0,20,10,0.89615894,0.89615894
320,11,21,21,12,3.0,1.0,12,0,75.0,42,46,0,4,0.0,8.0,59.0,Male,4.0,5.0,Currently attending,Other Eng,4,1,Base study,Main,,,Breakeven,Yes,33.0,21,10,0.804768212,0.804768212
321,11,22,22,12,3.0,1.0,12,0,75.0,31,25,6,0,0.0,4.0,46.0,Male,4.0,5.0,Currently attending,Other Eng,4,1,Base study,Main,,,Breakeven,Yes,44.0,22,10,0.6542163360000001,0.6542163360000001
322,11,23,23,12,3.0,1.0,12,0,75.0,62,55,7,0,6.0,0.0,25.0,Male,4.0,5.0,Currently attending,Other Eng,4,1,Base study,Main,,,Breakeven,Yes,13.0,23,10,0.969006623,0.969006623
323,11,24,24,12,3.0,1.0,12,0,75.0,71,98,0,27,7.0,0.0,55.0,Male,4.0,5.0,Currently attending,Other Eng,4,1,Base study,Main,,,Breakeven,Yes,4.0,24,10,0.9968211920000001,0.9968211920000001
324,11,25,25,12,3.0,1.0,12,0,75.0,55,2,53,0,0.0,27.0,98.0,Male,4.0,5.0,Currently attending,Other Eng,4,1,Base study,Main,,,Breakeven,Yes,20.0,25,10,0.927593819,0.927593819
325,11,26,26,12,3.0,1.0,12,0,75.0,15,14,1,0,53.0,0.0,2.0,Male,4.0,5.0,Currently attending,Other Eng,4,1,Base study,Main,,,Breakeven,Yes,60.0,26,10,0.358940397,0.358940397
326,11,27,27,12,3.0,1.0,12,0,75.0,61,21,40,0,1.0,0.0,14.0,Male,4.0,5.0,Currently attending,Other Eng,4,1,Base study,Main,,,Breakeven,Yes,14.0,27,10,0.96415011,0.96415011
327,11,28,28,12,3.0,1.0,12,0,75.0,52,94,0,42,40.0,0.0,21.0,Male,4.0,5.0,Currently attending,Other Eng,4,1,Base study,Main,,,Breakeven,Yes,23.0,28,10,0.9045474609999999,0.9045474609999999
328,11,29,29,12,3.0,1.0,12,0,75.0,42,83,0,41,0.0,42.0,94.0,Male,4.0,5.0,Currently attending,Other Eng,4,1,Base study,Main,,,Breakeven,Yes,33.0,29,10,0.804768212,0.804768212
329,11,30,30,12,3.0,1.0,12,0,75.0,60,76,0,16,0.0,41.0,83.0,Male,4.0,5.0,Currently attending,Other Eng,4,1,Base study,Main,,,Breakeven,Yes,15.0,30,10,0.958940397,0.958940397
330,12,1,1,12,3.0,1.0,12,0,75.0,60,24,36,0,,,,Male,3.0,4.0,No,Other,4,1,Base study,Main,,,Breakeven,No,15.0,1,11,0.958940397,0.958940397
331,12,2,2,12,3.0,1.0,12,0,75.0,60,52,8,0,36.0,0.0,24.0,Male,3.0,4.0,No,Other,4,1,Base study,Main,,,Breakeven,No,15.0,2,11,0.958940397,0.958940397
332,12,3,3,12,3.0,1.0,12,0,75.0,50,48,2,0,8.0,0.0,52.0,Male,3.0,4.0,No,Other,4,1,Base study,Main,,,Breakeven,No,25.0,3,11,0.887417219,0.887417219
333,12,4,4,12,3.0,1.0,12,0,75.0,40,100,0,60,2.0,0.0,48.0,Male,3.0,4.0,No,Other,4,1,Base study,Main,,,Breakeven,No,35.0,4,11,0.7805739509999999,0.7805739509999999
334,12,5,5,12,3.0,1.0,12,0,75.0,40,19,21,0,0.0,60.0,100.0,Male,3.0,4.0,No,Other,4,1,Base study,Main,,,Breakeven,No,35.0,5,11,0.7805739509999999,0.7805739509999999
335,12,6,6,12,3.0,1.0,12,0,75.0,70,20,50,0,21.0,0.0,19.0,Male,3.0,4.0,No,Other,4,1,Base study,Main,,,Breakeven,No,5.0,6,11,0.995143488,0.995143488
336,12,7,7,12,3.0,1.0,12,0,75.0,70,57,13,0,50.0,0.0,20.0,Male,3.0,4.0,No,Other,4,1,Base study,Main,,,Breakeven,No,5.0,7,11,0.995143488,0.995143488
337,12,8,8,12,3.0,1.0,12,0,75.0,40,72,0,32,13.0,0.0,57.0,Male,3.0,4.0,No,Other,4,1,Base study,Main,,,Breakeven,No,35.0,8,11,0.7805739509999999,0.7805739509999999
338,12,9,9,12,3.0,1.0,12,0,75.0,40,22,18,0,0.0,32.0,72.0,Male,3.0,4.0,No,Other,4,1,Base study,Main,,,Breakeven,No,35.0,9,11,0.7805739509999999,0.7805739509999999
339,12,10,10,12,3.0,1.0,12,0,75.0,20,59,0,39,18.0,0.0,22.0,Male,3.0,4.0,No,Other,4,1,Base study,Main,,,Breakeven,No,55.0,10,11,0.460927152,0.460927152
340,12,11,11,12,3.0,1.0,12,0,75.0,40,6,34,0,0.0,39.0,59.0,Male,3.0,4.0,No,Other,4,1,Base study,Main,,,Breakeven,No,35.0,11,11,0.7805739509999999,0.7805739509999999
341,12,12,12,12,3.0,1.0,12,0,75.0,60,86,0,26,34.0,0.0,6.0,Male,3.0,4.0,No,Other,4,1,Base study,Main,,,Breakeven,No,15.0,12,11,0.958940397,0.958940397
342,12,13,13,12,3.0,1.0,12,0,75.0,50,88,0,38,0.0,26.0,86.0,Male,3.0,4.0,No,Other,4,1,Base study,Main,,,Breakeven,No,25.0,13,11,0.887417219,0.887417219
343,12,14,14,12,3.0,1.0,12,0,75.0,30,27,3,0,0.0,38.0,88.0,Male,3.0,4.0,No,Other,4,1,Base study,Main,,,Breakeven,No,45.0,14,11,0.638410596,0.638410596
344,12,15,15,12,3.0,1.0,12,0,75.0,50,40,10,0,3.0,0.0,27.0,Male,3.0,4.0,No,Other,4,1,Base study,Main,,,Breakeven,No,25.0,15,11,0.887417219,0.887417219
345,12,16,16,12,3.0,1.0,12,0,75.0,70,32,38,0,10.0,0.0,40.0,Male,3.0,4.0,No,Other,4,1,Base study,Main,,,Breakeven,No,5.0,16,11,0.995143488,0.995143488
346,12,17,17,12,3.0,1.0,12,0,75.0,50,23,27,0,38.0,0.0,32.0,Male,3.0,4.0,No,Other,4,1,Base study,Main,,,Breakeven,No,25.0,17,11,0.887417219,0.887417219
347,12,18,18,12,3.0,1.0,12,0,75.0,70,98,0,28,27.0,0.0,23.0,Male,3.0,4.0,No,Other,4,1,Base study,Main,,,Breakeven,No,5.0,18,11,0.995143488,0.995143488
348,12,19,19,12,3.0,1.0,12,0,75.0,70,99,0,29,0.0,28.0,98.0,Male,3.0,4.0,No,Other,4,1,Base study,Main,,,Breakeven,No,5.0,19,11,0.995143488,0.995143488
349,12,20,20,12,3.0,1.0,12,0,75.0,40,85,0,45,0.0,29.0,99.0,Male,3.0,4.0,No,Other,4,1,Base study,Main,,,Breakeven,No,35.0,20,11,0.7805739509999999,0.7805739509999999
350,12,21,21,12,3.0,1.0,12,0,75.0,50,72,0,22,0.0,45.0,85.0,Male,3.0,4.0,No,Other,4,1,Base study,Main,,,Breakeven,No,25.0,21,11,0.887417219,0.887417219
351,12,22,22,12,3.0,1.0,12,0,75.0,40,44,0,4,0.0,22.0,72.0,Male,3.0,4.0,No,Other,4,1,Base study,Main,,,Breakeven,No,35.0,22,11,0.7805739509999999,0.7805739509999999
352,12,23,23,12,3.0,1.0,12,0,75.0,30,68,0,38,0.0,4.0,44.0,Male,3.0,4.0,No,Other,4,1,Base study,Main,,,Breakeven,No,45.0,23,11,0.638410596,0.638410596
353,12,24,24,12,3.0,1.0,12,0,75.0,30,66,0,36,0.0,38.0,68.0,Male,3.0,4.0,No,Other,4,1,Base study,Main,,,Breakeven,No,45.0,24,11,0.638410596,0.638410596
354,12,25,25,12,3.0,1.0,12,0,75.0,30,29,1,0,0.0,36.0,66.0,Male,3.0,4.0,No,Other,4,1,Base study,Main,,,Breakeven,No,45.0,25,11,0.638410596,0.638410596
355,12,26,26,12,3.0,1.0,12,0,75.0,70,1,69,0,1.0,0.0,29.0,Male,3.0,4.0,No,Other,4,1,Base study,Main,,,Breakeven,No,5.0,26,11,0.995143488,0.995143488
356,12,27,27,12,3.0,1.0,12,0,75.0,70,85,0,15,69.0,0.0,1.0,Male,3.0,4.0,No,Other,4,1,Base study,Main,,,Breakeven,No,5.0,27,11,0.995143488,0.995143488
357,12,28,28,12,3.0,1.0,12,0,75.0,60,94,0,34,0.0,15.0,85.0,Male,3.0,4.0,No,Other,4,1,Base study,Main,,,Breakeven,No,15.0,28,11,0.958940397,0.958940397
358,12,29,29,12,3.0,1.0,12,0,75.0,60,29,31,0,0.0,34.0,94.0,Male,3.0,4.0,No,Other,4,1,Base study,Main,,,Breakeven,No,15.0,29,11,0.958940397,0.958940397
359,12,30,30,12,3.0,1.0,12,0,75.0,70,50,20,0,31.0,0.0,29.0,Male,3.0,4.0,No,Other,4,1,Base study,Main,,,Breakeven,No,5.0,30,11,0.995143488,0.995143488
360,13,1,1,12,3.0,0.0,0,0,75.0,60,57,3,0,,,,Male,3.0,2.0,No,Economy,1,0,Base study,Main,,,,No,15.0,1,12,0.0,0.0
361,13,2,2,12,3.0,0.0,0,0,75.0,60,46,14,0,3.0,0.0,57.0,Male,3.0,2.0,No,Economy,1,0,Base study,Main,,,,No,15.0,2,12,0.0,0.0
362,13,3,3,12,3.0,0.0,0,0,75.0,50,97,0,47,14.0,0.0,46.0,Male,3.0,2.0,No,Economy,1,0,Base study,Main,,,,No,25.0,3,12,0.0,0.0
363,13,4,4,12,3.0,0.0,0,0,75.0,70,74,0,4,0.0,47.0,97.0,Male,3.0,2.0,No,Economy,1,0,Base study,Main,,,,No,5.0,4,12,0.0,0.0
364,13,5,5,12,3.0,0.0,0,0,75.0,50,43,7,0,0.0,4.0,74.0,Male,3.0,2.0,No,Economy,1,0,Base study,Main,,,,No,25.0,5,12,0.0,0.0
365,13,6,6,12,3.0,0.0,0,0,75.0,40,51,0,11,7.0,0.0,43.0,Male,3.0,2.0,No,Economy,1,0,Base study,Main,,,,No,35.0,6,12,0.0,0.0
366,13,7,7,12,3.0,0.0,0,0,75.0,80,55,25,0,0.0,11.0,51.0,Male,3.0,2.0,No,Economy,1,0,Base study,Main,,,,No,5.0,7,12,0.0,0.0
367,13,8,8,12,3.0,0.0,0,0,75.0,80,81,0,1,25.0,0.0,55.0,Male,3.0,2.0,No,Economy,1,0,Base study,Main,,,,No,5.0,8,12,0.0,0.0
368,13,9,9,12,3.0,0.0,0,0,75.0,80,35,45,0,0.0,1.0,81.0,Male,3.0,2.0,No,Economy,1,0,Base study,Main,,,,No,5.0,9,12,0.0,0.0
369,13,10,10,12,3.0,0.0,0,0,75.0,50,80,0,30,45.0,0.0,35.0,Male,3.0,2.0,No,Economy,1,0,Base study,Main,,,,No,25.0,10,12,0.0,0.0
370,13,11,11,12,3.0,0.0,0,0,75.0,50,60,0,10,0.0,30.0,80.0,Male,3.0,2.0,No,Economy,1,0,Base study,Main,,,,No,25.0,11,12,0.0,0.0
371,13,12,12,12,3.0,0.0,0,0,75.0,100,59,41,0,0.0,10.0,60.0,Male,3.0,2.0,No,Economy,1,0,Base study,Main,,,,No,25.0,12,12,0.0,0.0
372,13,13,13,12,3.0,0.0,0,0,75.0,90,33,57,0,41.0,0.0,59.0,Male,3.0,2.0,No,Economy,1,0,Base study,Main,,,,No,15.0,13,12,0.0,0.0
373,13,14,14,12,3.0,0.0,0,0,75.0,90,73,17,0,57.0,0.0,33.0,Male,3.0,2.0,No,Economy,1,0,Base study,Main,,,,No,15.0,14,12,0.0,0.0
374,13,15,15,12,3.0,0.0,0,0,75.0,80,36,44,0,17.0,0.0,73.0,Male,3.0,2.0,No,Economy,1,0,Base study,Main,,,,No,5.0,15,12,0.0,0.0
375,13,16,16,12,3.0,0.0,0,0,75.0,90,100,0,10,44.0,0.0,36.0,Male,3.0,2.0,No,Economy,1,0,Base study,Main,,,,No,15.0,16,12,0.0,0.0
376,13,17,17,12,3.0,0.0,0,0,75.0,50,86,0,36,0.0,10.0,100.0,Male,3.0,2.0,No,Economy,1,0,Base study,Main,,,,No,25.0,17,12,0.0,0.0
377,13,18,18,12,3.0,0.0,0,0,75.0,100,87,13,0,0.0,36.0,86.0,Male,3.0,2.0,No,Economy,1,0,Base study,Main,,,,No,25.0,18,12,0.0,0.0
378,13,19,19,12,3.0,0.0,0,0,75.0,100,96,4,0,13.0,0.0,87.0,Male,3.0,2.0,No,Economy,1,0,Base study,Main,,,,No,25.0,19,12,0.0,0.0
379,13,20,20,12,3.0,0.0,0,0,75.0,100,31,69,0,4.0,0.0,96.0,Male,3.0,2.0,No,Economy,1,0,Base study,Main,,,,No,25.0,20,12,0.0,0.0
380,13,21,21,12,3.0,0.0,0,0,75.0,100,61,39,0,69.0,0.0,31.0,Male,3.0,2.0,No,Economy,1,0,Base study,Main,,,,No,25.0,21,12,0.0,0.0
381,13,22,22,12,3.0,0.0,0,0,75.0,70,50,20,0,39.0,0.0,61.0,Male,3.0,2.0,No,Economy,1,0,Base study,Main,,,,No,5.0,22,12,0.0,0.0
382,13,23,23,12,3.0,0.0,0,0,75.0,60,20,40,0,20.0,0.0,50.0,Male,3.0,2.0,No,Economy,1,0,Base study,Main,,,,No,15.0,23,12,0.0,0.0
383,13,24,24,12,3.0,0.0,0,0,75.0,90,43,47,0,40.0,0.0,20.0,Male,3.0,2.0,No,Economy,1,0,Base study,Main,,,,No,15.0,24,12,0.0,0.0
384,13,25,25,12,3.0,0.0,0,0,75.0,50,73,0,23,47.0,0.0,43.0,Male,3.0,2.0,No,Economy,1,0,Base study,Main,,,,No,25.0,25,12,0.0,0.0
385,13,26,26,12,3.0,0.0,0,0,75.0,100,38,62,0,0.0,23.0,73.0,Male,3.0,2.0,No,Economy,1,0,Base study,Main,,,,No,25.0,26,12,0.0,0.0
386,13,27,27,12,3.0,0.0,0,0,75.0,80,65,15,0,62.0,0.0,38.0,Male,3.0,2.0,No,Economy,1,0,Base study,Main,,,,No,5.0,27,12,0.0,0.0
387,13,28,28,12,3.0,0.0,0,0,75.0,30,40,0,10,15.0,0.0,65.0,Male,3.0,2.0,No,Economy,1,0,Base study,Main,,,,No,45.0,28,12,0.0,0.0
388,13,29,29,12,3.0,0.0,0,0,75.0,75,66,9,0,0.0,10.0,40.0,Male,3.0,2.0,No,Economy,1,0,Base study,Main,,,,No,0.0,29,12,0.0,0.0
389,13,30,30,12,3.0,0.0,0,0,75.0,90,98,0,8,9.0,0.0,66.0,Male,3.0,2.0,No,Economy,1,0,Base study,Main,,,,No,15.0,30,12,0.0,0.0
390,14,1,1,12,3.0,1.0,12,0,75.0,60,2,58,0,,,,Female,4.0,4.0,No,Business,4,1,Base study,Main,,,Breakeven,No,15.0,1,13,0.958940397,0.958940397
391,14,2,2,12,3.0,1.0,12,0,75.0,6,29,0,23,58.0,0.0,2.0,Female,4.0,4.0,No,Business,4,1,Base study,Main,,,Breakeven,No,69.0,2,13,0.153112583,0.153112583
392,14,3,3,12,3.0,1.0,12,0,75.0,10,1,9,0,0.0,23.0,29.0,Female,4.0,4.0,No,Business,4,1,Base study,Main,,,Breakeven,No,65.0,3,13,0.24812362,0.24812362
393,14,4,4,12,3.0,1.0,12,0,75.0,25,57,0,32,9.0,0.0,1.0,Female,4.0,4.0,No,Business,4,1,Base study,Main,,,Breakeven,No,50.0,4,13,0.554083885,0.554083885
394,14,5,5,12,3.0,1.0,12,0,75.0,3,41,0,38,0.0,32.0,57.0,Female,4.0,4.0,No,Business,4,1,Base study,Main,,,Breakeven,No,72.0,5,13,0.078145695,0.078145695
395,14,6,6,12,3.0,1.0,12,0,75.0,26,20,6,0,0.0,38.0,41.0,Female,4.0,4.0,No,Business,4,1,Base study,Main,,,Breakeven,No,49.0,6,13,0.571655629,0.571655629
396,14,7,7,12,3.0,1.0,12,0,75.0,3,75,0,72,6.0,0.0,20.0,Female,4.0,4.0,No,Business,4,1,Base study,Main,,,Breakeven,No,72.0,7,13,0.078145695,0.078145695
397,14,8,8,12,3.0,1.0,12,0,75.0,4,29,0,25,0.0,72.0,75.0,Female,4.0,4.0,No,Business,4,1,Base study,Main,,,Breakeven,No,71.0,8,13,0.103487859,0.103487859
398,14,9,9,12,3.0,1.0,12,0,75.0,36,47,0,11,0.0,25.0,29.0,Female,4.0,4.0,No,Business,4,1,Base study,Main,,,Breakeven,No,39.0,9,13,0.72794702,0.72794702
399,14,10,10,12,3.0,1.0,12,0,75.0,56,91,0,35,0.0,11.0,47.0,Female,4.0,4.0,No,Business,4,1,Base study,Main,,,Breakeven,No,19.0,10,13,0.9345695359999999,0.9345695359999999
400,14,11,11,12,3.0,1.0,12,0,75.0,20,89,0,69,0.0,35.0,91.0,Female,4.0,4.0,No,Business,4,1,Base study,Main,,,Breakeven,No,55.0,11,13,0.460927152,0.460927152
401,14,12,12,12,3.0,1.0,12,0,75.0,78,55,23,0,0.0,69.0,89.0,Female,4.0,4.0,No,Business,4,1,Base study,Main,,,Breakeven,No,3.0,12,13,0.998675497,0.998675497
402,14,13,13,12,3.0,1.0,12,0,75.0,3,28,0,25,23.0,0.0,55.0,Female,4.0,4.0,No,Business,4,1,Base study,Main,,,Breakeven,No,72.0,13,13,0.078145695,0.078145695
403,14,14,14,12,3.0,1.0,12,0,75.0,76,16,60,0,0.0,25.0,28.0,Female,4.0,4.0,No,Business,4,1,Base study,Main,,,Breakeven,No,1.0,14,13,0.9999117000000001,0.9999117000000001
404,14,15,15,12,3.0,1.0,12,0,75.0,5,58,0,53,60.0,0.0,16.0,Female,4.0,4.0,No,Business,4,1,Base study,Main,,,Breakeven,No,70.0,15,13,0.128476821,0.128476821
405,14,16,16,12,3.0,1.0,12,0,75.0,10,49,0,39,0.0,53.0,58.0,Female,4.0,4.0,No,Business,4,1,Base study,Main,,,Breakeven,No,65.0,16,13,0.24812362,0.24812362
406,14,17,17,12,3.0,1.0,12,0,75.0,80,39,41,0,0.0,39.0,49.0,Female,4.0,4.0,No,Business,4,1,Base study,Main,,,Breakeven,No,5.0,17,13,0.99602649,0.99602649
407,14,18,18,12,3.0,1.0,12,0,75.0,80,99,0,19,41.0,0.0,39.0,Female,4.0,4.0,No,Business,4,1,Base study,Main,,,Breakeven,No,5.0,18,13,0.99602649,0.99602649
408,14,19,19,12,3.0,1.0,12,0,75.0,30,56,0,26,0.0,19.0,99.0,Female,4.0,4.0,No,Business,4,1,Base study,Main,,,Breakeven,No,45.0,19,13,0.638410596,0.638410596
409,14,20,20,12,3.0,1.0,12,0,75.0,30,4,26,0,0.0,26.0,56.0,Female,4.0,4.0,No,Business,4,1,Base study,Main,,,Breakeven,No,45.0,20,13,0.638410596,0.638410596
410,14,21,21,12,3.0,1.0,12,0,75.0,50,36,14,0,26.0,0.0,4.0,Female,4.0,4.0,No,Business,4,1,Base study,Main,,,Breakeven,No,25.0,21,13,0.887417219,0.887417219
411,14,22,22,12,3.0,1.0,12,0,75.0,46,74,0,28,14.0,0.0,36.0,Female,4.0,4.0,No,Business,4,1,Base study,Main,,,Breakeven,No,29.0,22,13,0.8489183220000001,0.8489183220000001
412,14,23,23,12,3.0,1.0,12,0,75.0,56,20,36,0,0.0,28.0,74.0,Female,4.0,4.0,No,Business,4,1,Base study,Main,,,Breakeven,No,19.0,23,13,0.9345695359999999,0.9345695359999999
413,14,24,24,12,3.0,1.0,12,0,75.0,90,44,46,0,36.0,0.0,20.0,Female,4.0,4.0,No,Business,4,1,Base study,Main,,,Breakeven,No,15.0,24,13,0.961589404,0.961589404
414,14,25,25,12,3.0,1.0,12,0,75.0,100,94,6,0,46.0,0.0,44.0,Female,4.0,4.0,No,Business,4,1,Base study,Main,,,Breakeven,No,25.0,25,13,0.89183223,0.89183223
415,14,26,26,12,3.0,1.0,12,0,75.0,4,62,0,58,6.0,0.0,94.0,Female,4.0,4.0,No,Business,4,1,Base study,Main,,,Breakeven,No,71.0,26,13,0.103487859,0.103487859
416,14,27,27,12,3.0,1.0,12,0,75.0,58,60,0,2,0.0,58.0,62.0,Female,4.0,4.0,No,Business,4,1,Base study,Main,,,Breakeven,No,17.0,27,13,0.9474613690000001,0.9474613690000001
417,14,28,28,12,3.0,1.0,12,0,75.0,28,27,1,0,0.0,2.0,60.0,Female,4.0,4.0,No,Business,4,1,Base study,Main,,,Breakeven,No,47.0,28,13,0.605739514,0.605739514
418,14,29,29,12,3.0,1.0,12,0,75.0,100,82,18,0,1.0,0.0,27.0,Female,4.0,4.0,No,Business,4,1,Base study,Main,,,Breakeven,No,25.0,29,13,0.89183223,0.89183223
419,14,30,30,12,3.0,1.0,12,0,75.0,78,62,16,0,18.0,0.0,82.0,Female,4.0,4.0,No,Business,4,1,Base study,Main,,,Breakeven,No,3.0,30,13,0.998675497,0.998675497
420,15,1,1,12,3.0,1.0,12,0,75.0,50,42,8,0,,,,Female,4.0,6.0,No,Other,4,1,Base study,Main,,,Breakeven,No,25.0,1,14,0.887417219,0.887417219
421,15,2,2,12,3.0,1.0,12,0,75.0,50,53,0,3,8.0,0.0,42.0,Female,4.0,6.0,No,Other,4,1,Base study,Main,,,Breakeven,No,25.0,2,14,0.887417219,0.887417219
422,15,3,3,12,3.0,1.0,12,0,75.0,50,55,0,5,0.0,3.0,53.0,Female,4.0,6.0,No,Other,4,1,Base study,Main,,,Breakeven,No,25.0,3,14,0.887417219,0.887417219
423,15,4,4,12,3.0,1.0,12,0,75.0,50,88,0,38,0.0,5.0,55.0,Female,4.0,6.0,No,Other,4,1,Base study,Main,,,Breakeven,No,25.0,4,14,0.887417219,0.887417219
424,15,5,5,12,3.0,1.0,12,0,75.0,50,69,0,19,0.0,38.0,88.0,Female,4.0,6.0,No,Other,4,1,Base study,Main,,,Breakeven,No,25.0,5,14,0.887417219,0.887417219
425,15,6,6,12,3.0,1.0,12,0,75.0,75,6,69,0,0.0,19.0,69.0,Female,4.0,6.0,No,Other,4,1,Base study,Main,,,Breakeven,No,0.0,6,14,1.0,1.0
426,15,7,7,12,3.0,1.0,12,0,75.0,75,23,52,0,69.0,0.0,6.0,Female,4.0,6.0,No,Other,4,1,Base study,Main,,,Breakeven,No,0.0,7,14,1.0,1.0
427,15,8,8,12,3.0,1.0,12,0,75.0,75,72,3,0,52.0,0.0,23.0,Female,4.0,6.0,No,Other,4,1,Base study,Main,,,Breakeven,No,0.0,8,14,1.0,1.0
428,15,9,9,12,3.0,1.0,12,0,75.0,75,53,22,0,3.0,0.0,72.0,Female,4.0,6.0,No,Other,4,1,Base study,Main,,,Breakeven,No,0.0,9,14,1.0,1.0
429,15,10,10,12,3.0,1.0,12,0,75.0,75,5,70,0,22.0,0.0,53.0,Female,4.0,6.0,No,Other,4,1,Base study,Main,,,Breakeven,No,0.0,10,14,1.0,1.0
430,15,11,11,12,3.0,1.0,12,0,75.0,25,10,15,0,70.0,0.0,5.0,Female,4.0,6.0,No,Other,4,1,Base study,Main,,,Breakeven,No,50.0,11,14,0.554083885,0.554083885
431,15,12,12,12,3.0,1.0,12,0,75.0,25,16,9,0,15.0,0.0,10.0,Female,4.0,6.0,No,Other,4,1,Base study,Main,,,Breakeven,No,50.0,12,14,0.554083885,0.554083885
432,15,13,13,12,3.0,1.0,12,0,75.0,25,74,0,49,9.0,0.0,16.0,Female,4.0,6.0,No,Other,4,1,Base study,Main,,,Breakeven,No,50.0,13,14,0.554083885,0.554083885
433,15,14,14,12,3.0,1.0,12,0,75.0,25,29,0,4,0.0,49.0,74.0,Female,4.0,6.0,No,Other,4,1,Base study,Main,,,Breakeven,No,50.0,14,14,0.554083885,0.554083885
434,15,15,15,12,3.0,1.0,12,0,75.0,25,57,0,32,0.0,4.0,29.0,Female,4.0,6.0,No,Other,4,1,Base study,Main,,,Breakeven,No,50.0,15,14,0.554083885,0.554083885
435,15,16,16,12,3.0,1.0,12,0,75.0,100,38,62,0,0.0,32.0,57.0,Female,4.0,6.0,No,Other,4,1,Base study,Main,,,Breakeven,No,25.0,16,14,0.89183223,0.89183223
436,15,17,17,12,3.0,1.0,12,0,75.0,100,96,4,0,62.0,0.0,38.0,Female,4.0,6.0,No,Other,4,1,Base study,Main,,,Breakeven,No,25.0,17,14,0.89183223,0.89183223
437,15,18,18,12,3.0,1.0,12,0,75.0,100,37,63,0,4.0,0.0,96.0,Female,4.0,6.0,No,Other,4,1,Base study,Main,,,Breakeven,No,25.0,18,14,0.89183223,0.89183223
438,15,19,19,12,3.0,1.0,12,0,75.0,100,26,74,0,63.0,0.0,37.0,Female,4.0,6.0,No,Other,4,1,Base study,Main,,,Breakeven,No,25.0,19,14,0.89183223,0.89183223
439,15,20,20,12,3.0,1.0,12,0,75.0,100,2,98,0,74.0,0.0,26.0,Female,4.0,6.0,No,Other,4,1,Base study,Main,,,Breakeven,No,25.0,20,14,0.89183223,0.89183223
440,15,21,21,12,3.0,1.0,12,0,75.0,50,8,42,0,98.0,0.0,2.0,Female,4.0,6.0,No,Other,4,1,Base study,Main,,,Breakeven,No,25.0,21,14,0.887417219,0.887417219
441,15,22,22,12,3.0,1.0,12,0,75.0,50,35,15,0,42.0,0.0,8.0,Female,4.0,6.0,No,Other,4,1,Base study,Main,,,Breakeven,No,25.0,22,14,0.887417219,0.887417219
442,15,23,23,12,3.0,1.0,12,0,75.0,50,36,14,0,15.0,0.0,35.0,Female,4.0,6.0,No,Other,4,1,Base study,Main,,,Breakeven,No,25.0,23,14,0.887417219,0.887417219
443,15,24,24,12,3.0,1.0,12,0,75.0,50,15,35,0,14.0,0.0,36.0,Female,4.0,6.0,No,Other,4,1,Base study,Main,,,Breakeven,No,25.0,24,14,0.887417219,0.887417219
444,15,25,25,12,3.0,1.0,12,0,75.0,50,89,0,39,35.0,0.0,15.0,Female,4.0,6.0,No,Other,4,1,Base study,Main,,,Breakeven,No,25.0,25,14,0.887417219,0.887417219
445,15,26,26,12,3.0,1.0,12,0,75.0,60,48,12,0,0.0,39.0,89.0,Female,4.0,6.0,No,Other,4,1,Base study,Main,,,Breakeven,No,15.0,26,14,0.958940397,0.958940397
446,15,27,27,12,3.0,1.0,12,0,75.0,60,19,41,0,12.0,0.0,48.0,Female,4.0,6.0,No,Other,4,1,Base study,Main,,,Breakeven,No,15.0,27,14,0.958940397,0.958940397
447,15,28,28,12,3.0,1.0,12,0,75.0,60,65,0,5,41.0,0.0,19.0,Female,4.0,6.0,No,Other,4,1,Base study,Main,,,Breakeven,No,15.0,28,14,0.958940397,0.958940397
448,15,29,29,12,3.0,1.0,12,0,75.0,60,55,5,0,0.0,5.0,65.0,Female,4.0,6.0,No,Other,4,1,Base study,Main,,,Breakeven,No,15.0,29,14,0.958940397,0.958940397
449,15,30,30,12,3.0,1.0,12,0,75.0,60,27,33,0,5.0,0.0,55.0,Female,4.0,6.0,No,Other,4,1,Base study,Main,,,Breakeven,No,15.0,30,14,0.958940397,0.958940397
450,16,1,1,12,3.0,1.0,12,0,75.0,40,96,0,56,,,,Female,3.0,5.0,No,Other Eng,4,1,Base study,Main,,,Breakeven,No,35.0,1,15,0.7805739509999999,0.7805739509999999
451,16,2,2,12,3.0,1.0,12,0,75.0,55,44,11,0,0.0,56.0,96.0,Female,3.0,5.0,No,Other Eng,4,1,Base study,Main,,,Breakeven,No,20.0,2,15,0.927593819,0.927593819
452,16,3,3,12,3.0,1.0,12,0,75.0,50,44,6,0,11.0,0.0,44.0,Female,3.0,5.0,No,Other Eng,4,1,Base study,Main,,,Breakeven,No,25.0,3,15,0.887417219,0.887417219
453,16,4,4,12,3.0,1.0,12,0,75.0,40,9,31,0,6.0,0.0,44.0,Female,3.0,5.0,No,Other Eng,4,1,Base study,Main,,,Breakeven,No,35.0,4,15,0.7805739509999999,0.7805739509999999
454,16,5,5,12,3.0,1.0,12,0,75.0,45,53,0,8,31.0,0.0,9.0,Female,3.0,5.0,No,Other Eng,4,1,Base study,Main,,,Breakeven,No,30.0,5,15,0.8384105959999999,0.8384105959999999
455,16,6,6,12,3.0,1.0,12,0,75.0,35,40,0,5,0.0,8.0,53.0,Female,3.0,5.0,No,Other Eng,4,1,Base study,Main,,,Breakeven,No,40.0,6,15,0.713907285,0.713907285
456,16,7,7,12,3.0,1.0,12,0,75.0,55,91,0,36,0.0,5.0,40.0,Female,3.0,5.0,No,Other Eng,4,1,Base study,Main,,,Breakeven,No,20.0,7,15,0.927593819,0.927593819
457,16,8,8,12,3.0,1.0,12,0,75.0,50,4,46,0,0.0,36.0,91.0,Female,3.0,5.0,No,Other Eng,4,1,Base study,Main,,,Breakeven,No,25.0,8,15,0.887417219,0.887417219
458,16,9,9,12,3.0,1.0,12,0,75.0,60,19,41,0,46.0,0.0,4.0,Female,3.0,5.0,No,Other Eng,4,1,Base study,Main,,,Breakeven,No,15.0,9,15,0.958940397,0.958940397
459,16,10,10,12,3.0,1.0,12,0,75.0,30,32,0,2,41.0,0.0,19.0,Female,3.0,5.0,No,Other Eng,4,1,Base study,Main,,,Breakeven,No,45.0,10,15,0.638410596,0.638410596
460,16,11,11,12,3.0,1.0,12,0,75.0,40,45,0,5,0.0,2.0,32.0,Female,3.0,5.0,No,Other Eng,4,1,Base study,Main,,,Breakeven,No,35.0,11,15,0.7805739509999999,0.7805739509999999
461,16,12,12,12,3.0,1.0,12,0,75.0,20,88,0,68,0.0,5.0,45.0,Female,3.0,5.0,No,Other Eng,4,1,Base study,Main,,,Breakeven,No,55.0,12,15,0.460927152,0.460927152
462,16,13,13,12,3.0,1.0,12,0,75.0,40,38,2,0,0.0,68.0,88.0,Female,3.0,5.0,No,Other Eng,4,1,Base study,Main,,,Breakeven,No,35.0,13,15,0.7805739509999999,0.7805739509999999
463,16,14,14,12,3.0,1.0,12,0,75.0,50,12,38,0,2.0,0.0,38.0,Female,3.0,5.0,No,Other Eng,4,1,Base study,Main,,,Breakeven,No,25.0,14,15,0.887417219,0.887417219
464,16,15,15,12,3.0,1.0,12,0,75.0,40,81,0,41,38.0,0.0,12.0,Female,3.0,5.0,No,Other Eng,4,1,Base study,Main,,,Breakeven,No,35.0,15,15,0.7805739509999999,0.7805739509999999
465,16,16,16,12,3.0,1.0,12,0,75.0,30,69,0,39,0.0,41.0,81.0,Female,3.0,5.0,No,Other Eng,4,1,Base study,Main,,,Breakeven,No,45.0,16,15,0.638410596,0.638410596
466,16,17,17,12,3.0,1.0,12,0,75.0,50,32,18,0,0.0,39.0,69.0,Female,3.0,5.0,No,Other Eng,4,1,Base study,Main,,,Breakeven,No,25.0,17,15,0.887417219,0.887417219
467,16,18,18,12,3.0,1.0,12,0,75.0,20,54,0,34,18.0,0.0,32.0,Female,3.0,5.0,No,Other Eng,4,1,Base study,Main,,,Breakeven,No,55.0,18,15,0.460927152,0.460927152
468,16,19,19,12,3.0,1.0,12,0,75.0,30,48,0,18,0.0,34.0,54.0,Female,3.0,5.0,No,Other Eng,4,1,Base study,Main,,,Breakeven,No,45.0,19,15,0.638410596,0.638410596
469,16,20,20,12,3.0,1.0,12,0,75.0,40,78,0,38,0.0,18.0,48.0,Female,3.0,5.0,No,Other Eng,4,1,Base study,Main,,,Breakeven,No,35.0,20,15,0.7805739509999999,0.7805739509999999
470,16,21,21,12,3.0,1.0,12,0,75.0,60,68,0,8,0.0,38.0,78.0,Female,3.0,5.0,No,Other Eng,4,1,Base study,Main,,,Breakeven,No,15.0,21,15,0.958940397,0.958940397
471,16,22,22,12,3.0,1.0,12,0,75.0,40,96,0,56,0.0,8.0,68.0,Female,3.0,5.0,No,Other Eng,4,1,Base study,Main,,,Breakeven,No,35.0,22,15,0.7805739509999999,0.7805739509999999
472,16,23,23,12,3.0,1.0,12,0,75.0,50,95,0,45,0.0,56.0,96.0,Female,3.0,5.0,No,Other Eng,4,1,Base study,Main,,,Breakeven,No,25.0,23,15,0.887417219,0.887417219
473,16,24,24,12,3.0,1.0,12,0,75.0,20,9,11,0,0.0,45.0,95.0,Female,3.0,5.0,No,Other Eng,4,1,Base study,Main,,,Breakeven,No,55.0,24,15,0.460927152,0.460927152
474,16,25,25,12,3.0,1.0,12,0,75.0,30,76,0,46,11.0,0.0,9.0,Female,3.0,5.0,No,Other Eng,4,1,Base study,Main,,,Breakeven,No,45.0,25,15,0.638410596,0.638410596
475,16,26,26,12,3.0,1.0,12,0,75.0,50,21,29,0,0.0,46.0,76.0,Female,3.0,5.0,No,Other Eng,4,1,Base study,Main,,,Breakeven,No,25.0,26,15,0.887417219,0.887417219
476,16,27,27,12,3.0,1.0,12,0,75.0,40,35,5,0,29.0,0.0,21.0,Female,3.0,5.0,No,Other Eng,4,1,Base study,Main,,,Breakeven,No,35.0,27,15,0.7805739509999999,0.7805739509999999
477,16,28,28,12,3.0,1.0,12,0,75.0,45,77,0,32,5.0,0.0,35.0,Female,3.0,5.0,No,Other Eng,4,1,Base study,Main,,,Breakeven,No,30.0,28,15,0.8384105959999999,0.8384105959999999
478,16,29,29,12,3.0,1.0,12,0,75.0,48,79,0,31,0.0,32.0,77.0,Female,3.0,5.0,No,Other Eng,4,1,Base study,Main,,,Breakeven,No,27.0,29,15,0.8688741720000001,0.8688741720000001
479,16,30,30,12,3.0,1.0,12,0,75.0,30,31,0,1,0.0,31.0,79.0,Female,3.0,5.0,No,Other Eng,4,1,Base study,Main,,,Breakeven,No,45.0,30,15,0.638410596,0.638410596
480,17,1,1,12,3.0,1.0,12,0,75.0,30,17,13,0,,,,Other,7.0,8.0,Past semesters,Other,4,1,Base study,Main,,,Breakeven,Yes,45.0,1,16,0.638410596,0.638410596
481,17,2,2,12,3.0,1.0,12,0,75.0,20,68,0,48,13.0,0.0,17.0,Other,7.0,8.0,Past semesters,Other,4,1,Base study,Main,,,Breakeven,Yes,55.0,2,16,0.460927152,0.460927152
482,17,3,3,12,3.0,1.0,12,0,75.0,30,28,2,0,0.0,48.0,68.0,Other,7.0,8.0,Past semesters,Other,4,1,Base study,Main,,,Breakeven,Yes,45.0,3,16,0.638410596,0.638410596
483,17,4,4,12,3.0,1.0,12,0,75.0,70,64,6,0,2.0,0.0,28.0,Other,7.0,8.0,Past semesters,Other,4,1,Base study,Main,,,Breakeven,Yes,5.0,4,16,0.995143488,0.995143488
484,17,5,5,12,3.0,1.0,12,0,75.0,20,36,0,16,6.0,0.0,64.0,Other,7.0,8.0,Past semesters,Other,4,1,Base study,Main,,,Breakeven,Yes,55.0,5,16,0.460927152,0.460927152
485,17,6,6,12,3.0,1.0,12,0,75.0,80,52,28,0,0.0,16.0,36.0,Other,7.0,8.0,Past semesters,Other,4,1,Base study,Main,,,Breakeven,Yes,5.0,6,16,0.99602649,0.99602649
486,17,7,7,12,3.0,1.0,12,0,75.0,20,70,0,50,28.0,0.0,52.0,Other,7.0,8.0,Past semesters,Other,4,1,Base study,Main,,,Breakeven,Yes,55.0,7,16,0.460927152,0.460927152
487,17,8,8,12,3.0,1.0,12,0,75.0,30,15,15,0,0.0,50.0,70.0,Other,7.0,8.0,Past semesters,Other,4,1,Base study,Main,,,Breakeven,Yes,45.0,8,16,0.638410596,0.638410596
488,17,9,9,12,3.0,1.0,12,0,75.0,80,33,47,0,15.0,0.0,15.0,Other,7.0,8.0,Past semesters,Other,4,1,Base study,Main,,,Breakeven,Yes,5.0,9,16,0.99602649,0.99602649
489,17,10,10,12,3.0,1.0,12,0,75.0,40,46,0,6,47.0,0.0,33.0,Other,7.0,8.0,Past semesters,Other,4,1,Base study,Main,,,Breakeven,Yes,35.0,10,16,0.7805739509999999,0.7805739509999999
490,17,11,11,12,3.0,1.0,12,0,75.0,20,78,0,58,0.0,6.0,46.0,Other,7.0,8.0,Past semesters,Other,4,1,Base study,Main,,,Breakeven,Yes,55.0,11,16,0.460927152,0.460927152
491,17,12,12,12,3.0,1.0,12,0,75.0,20,79,0,59,0.0,58.0,78.0,Other,7.0,8.0,Past semesters,Other,4,1,Base study,Main,,,Breakeven,Yes,55.0,12,16,0.460927152,0.460927152
492,17,13,13,12,3.0,1.0,12,0,75.0,20,28,0,8,0.0,59.0,79.0,Other,7.0,8.0,Past semesters,Other,4,1,Base study,Main,,,Breakeven,Yes,55.0,13,16,0.460927152,0.460927152
493,17,14,14,12,3.0,1.0,12,0,75.0,50,1,49,0,0.0,8.0,28.0,Other,7.0,8.0,Past semesters,Other,4,1,Base study,Main,,,Breakeven,Yes,25.0,14,16,0.887417219,0.887417219
494,17,15,15,12,3.0,1.0,12,0,75.0,80,11,69,0,49.0,0.0,1.0,Other,7.0,8.0,Past semesters,Other,4,1,Base study,Main,,,Breakeven,Yes,5.0,15,16,0.99602649,0.99602649
495,17,16,16,12,3.0,1.0,12,0,75.0,80,10,70,0,69.0,0.0,11.0,Other,7.0,8.0,Past semesters,Other,4,1,Base study,Main,,,Breakeven,Yes,5.0,16,16,0.99602649,0.99602649
496,17,17,17,12,3.0,1.0,12,0,75.0,90,52,38,0,70.0,0.0,10.0,Other,7.0,8.0,Past semesters,Other,4,1,Base study,Main,,,Breakeven,Yes,15.0,17,16,0.961589404,0.961589404
497,17,18,18,12,3.0,1.0,12,0,75.0,50,78,0,28,38.0,0.0,52.0,Other,7.0,8.0,Past semesters,Other,4,1,Base study,Main,,,Breakeven,Yes,25.0,18,16,0.887417219,0.887417219
498,17,19,19,12,3.0,1.0,12,0,75.0,30,36,0,6,0.0,28.0,78.0,Other,7.0,8.0,Past semesters,Other,4,1,Base study,Main,,,Breakeven,Yes,45.0,19,16,0.638410596,0.638410596
499,17,20,20,12,3.0,1.0,12,0,75.0,50,80,0,30,0.0,6.0,36.0,Other,7.0,8.0,Past semesters,Other,4,1,Base study,Main,,,Breakeven,Yes,25.0,20,16,0.887417219,0.887417219
500,17,21,21,12,3.0,1.0,12,0,75.0,60,93,0,33,0.0,30.0,80.0,Other,7.0,8.0,Past semesters,Other,4,1,Base study,Main,,,Breakeven,Yes,15.0,21,16,0.958940397,0.958940397
501,17,22,22,12,3.0,1.0,12,0,75.0,60,19,41,0,0.0,33.0,93.0,Other,7.0,8.0,Past semesters,Other,4,1,Base study,Main,,,Breakeven,Yes,15.0,22,16,0.958940397,0.958940397
502,17,23,23,12,3.0,1.0,12,0,75.0,50,100,0,50,41.0,0.0,19.0,Other,7.0,8.0,Past semesters,Other,4,1,Base study,Main,,,Breakeven,Yes,25.0,23,16,0.887417219,0.887417219
503,17,24,24,12,3.0,1.0,12,0,75.0,50,57,0,7,0.0,50.0,100.0,Other,7.0,8.0,Past semesters,Other,4,1,Base study,Main,,,Breakeven,Yes,25.0,24,16,0.887417219,0.887417219
504,17,25,25,12,3.0,1.0,12,0,75.0,20,19,1,0,0.0,7.0,57.0,Other,7.0,8.0,Past semesters,Other,4,1,Base study,Main,,,Breakeven,Yes,55.0,25,16,0.460927152,0.460927152
505,17,26,26,12,3.0,1.0,12,0,75.0,20,57,0,37,1.0,0.0,19.0,Other,7.0,8.0,Past semesters,Other,4,1,Base study,Main,,,Breakeven,Yes,55.0,26,16,0.460927152,0.460927152
506,17,27,27,12,3.0,1.0,12,0,75.0,30,30,0,0,0.0,37.0,57.0,Other,7.0,8.0,Past semesters,Other,4,1,Base study,Main,,,Breakeven,Yes,45.0,27,16,0.638410596,0.638410596
507,17,28,28,12,3.0,1.0,12,0,75.0,80,8,72,0,0.0,0.0,30.0,Other,7.0,8.0,Past semesters,Other,4,1,Base study,Main,,,Breakeven,Yes,5.0,28,16,0.99602649,0.99602649
508,17,29,29,12,3.0,1.0,12,0,75.0,80,4,76,0,72.0,0.0,8.0,Other,7.0,8.0,Past semesters,Other,4,1,Base study,Main,,,Breakeven,Yes,5.0,29,16,0.99602649,0.99602649
509,17,30,30,12,3.0,1.0,12,0,75.0,90,98,0,8,76.0,0.0,4.0,Other,7.0,8.0,Past semesters,Other,4,1,Base study,Main,,,Breakeven,Yes,15.0,30,16,0.961589404,0.961589404
510,18,1,1,12,3.0,1.0,12,0,75.0,60,22,38,0,,,,Male,3.0,5.0,No,Economy,4,1,Base study,Main,,,Breakeven,No,15.0,1,17,0.958940397,0.958940397
511,18,2,2,12,3.0,1.0,12,0,75.0,40,99,0,59,38.0,0.0,22.0,Male,3.0,5.0,No,Economy,4,1,Base study,Main,,,Breakeven,No,35.0,2,17,0.7805739509999999,0.7805739509999999
512,18,3,3,12,3.0,1.0,12,0,75.0,60,52,8,0,0.0,59.0,99.0,Male,3.0,5.0,No,Economy,4,1,Base study,Main,,,Breakeven,No,15.0,3,17,0.958940397,0.958940397
513,18,4,4,12,3.0,1.0,12,0,75.0,60,75,0,15,8.0,0.0,52.0,Male,3.0,5.0,No,Economy,4,1,Base study,Main,,,Breakeven,No,15.0,4,17,0.958940397,0.958940397
514,18,5,5,12,3.0,1.0,12,0,75.0,50,52,0,2,0.0,15.0,75.0,Male,3.0,5.0,No,Economy,4,1,Base study,Main,,,Breakeven,No,25.0,5,17,0.887417219,0.887417219
515,18,6,6,12,3.0,1.0,12,0,75.0,80,15,65,0,0.0,2.0,52.0,Male,3.0,5.0,No,Economy,4,1,Base study,Main,,,Breakeven,No,5.0,6,17,0.99602649,0.99602649
516,18,7,7,12,3.0,1.0,12,0,75.0,45,79,0,34,65.0,0.0,15.0,Male,3.0,5.0,No,Economy,4,1,Base study,Main,,,Breakeven,No,30.0,7,17,0.8384105959999999,0.8384105959999999
517,18,8,8,12,3.0,1.0,12,0,75.0,50,74,0,24,0.0,34.0,79.0,Male,3.0,5.0,No,Economy,4,1,Base study,Main,,,Breakeven,No,25.0,8,17,0.887417219,0.887417219
518,18,9,9,12,3.0,1.0,12,0,75.0,70,75,0,5,0.0,24.0,74.0,Male,3.0,5.0,No,Economy,4,1,Base study,Main,,,Breakeven,No,5.0,9,17,0.995143488,0.995143488
519,18,10,10,12,3.0,1.0,12,0,75.0,60,40,20,0,0.0,5.0,75.0,Male,3.0,5.0,No,Economy,4,1,Base study,Main,,,Breakeven,No,15.0,10,17,0.958940397,0.958940397
520,18,11,11,12,3.0,1.0,12,0,75.0,60,5,55,0,20.0,0.0,40.0,Male,3.0,5.0,No,Economy,4,1,Base study,Main,,,Breakeven,No,15.0,11,17,0.958940397,0.958940397
521,18,12,12,12,3.0,1.0,12,0,75.0,60,92,0,32,55.0,0.0,5.0,Male,3.0,5.0,No,Economy,4,1,Base study,Main,,,Breakeven,No,15.0,12,17,0.958940397,0.958940397
522,18,13,13,12,3.0,1.0,12,0,75.0,70,60,10,0,0.0,32.0,92.0,Male,3.0,5.0,No,Economy,4,1,Base study,Main,,,Breakeven,No,5.0,13,17,0.995143488,0.995143488
523,18,14,14,12,3.0,1.0,12,0,75.0,60,94,0,34,10.0,0.0,60.0,Male,3.0,5.0,No,Economy,4,1,Base study,Main,,,Breakeven,No,15.0,14,17,0.958940397,0.958940397
524,18,15,15,12,3.0,1.0,12,0,75.0,70,16,54,0,0.0,34.0,94.0,Male,3.0,5.0,No,Economy,4,1,Base study,Main,,,Breakeven,No,5.0,15,17,0.995143488,0.995143488
525,18,16,16,12,3.0,1.0,12,0,75.0,70,32,38,0,54.0,0.0,16.0,Male,3.0,5.0,No,Economy,4,1,Base study,Main,,,Breakeven,No,5.0,16,17,0.995143488,0.995143488
526,18,17,17,12,3.0,1.0,12,0,75.0,70,48,22,0,38.0,0.0,32.0,Male,3.0,5.0,No,Economy,4,1,Base study,Main,,,Breakeven,No,5.0,17,17,0.995143488,0.995143488
527,18,18,18,12,3.0,1.0,12,0,75.0,60,35,25,0,22.0,0.0,48.0,Male,3.0,5.0,No,Economy,4,1,Base study,Main,,,Breakeven,No,15.0,18,17,0.958940397,0.958940397
528,18,19,19,12,3.0,1.0,12,0,75.0,60,79,0,19,25.0,0.0,35.0,Male,3.0,5.0,No,Economy,4,1,Base study,Main,,,Breakeven,No,15.0,19,17,0.958940397,0.958940397
529,18,20,20,12,3.0,1.0,12,0,75.0,65,84,0,19,0.0,19.0,79.0,Male,3.0,5.0,No,Economy,4,1,Base study,Main,,,Breakeven,No,10.0,20,17,0.9814569540000001,0.9814569540000001
530,18,21,21,12,3.0,1.0,12,0,75.0,50,59,0,9,0.0,19.0,84.0,Male,3.0,5.0,No,Economy,4,1,Base study,Main,,,Breakeven,No,25.0,21,17,0.887417219,0.887417219
531,18,22,22,12,3.0,1.0,12,0,75.0,60,89,0,29,0.0,9.0,59.0,Male,3.0,5.0,No,Economy,4,1,Base study,Main,,,Breakeven,No,15.0,22,17,0.958940397,0.958940397
532,18,23,23,12,3.0,1.0,12,0,75.0,65,61,4,0,0.0,29.0,89.0,Male,3.0,5.0,No,Economy,4,1,Base study,Main,,,Breakeven,No,10.0,23,17,0.9814569540000001,0.9814569540000001
533,18,24,24,12,3.0,1.0,12,0,75.0,65,86,0,21,4.0,0.0,61.0,Male,3.0,5.0,No,Economy,4,1,Base study,Main,,,Breakeven,No,10.0,24,17,0.9814569540000001,0.9814569540000001
534,18,25,25,12,3.0,1.0,12,0,75.0,70,5,65,0,0.0,21.0,86.0,Male,3.0,5.0,No,Economy,4,1,Base study,Main,,,Breakeven,No,5.0,25,17,0.995143488,0.995143488
535,18,26,26,12,3.0,1.0,12,0,75.0,65,29,36,0,65.0,0.0,5.0,Male,3.0,5.0,No,Economy,4,1,Base study,Main,,,Breakeven,No,10.0,26,17,0.9814569540000001,0.9814569540000001
536,18,27,27,12,3.0,1.0,12,0,75.0,45,25,20,0,36.0,0.0,29.0,Male,3.0,5.0,No,Economy,4,1,Base study,Main,,,Breakeven,No,30.0,27,17,0.8384105959999999,0.8384105959999999
537,18,28,28,12,3.0,1.0,12,0,75.0,45,40,5,0,20.0,0.0,25.0,Male,3.0,5.0,No,Economy,4,1,Base study,Main,,,Breakeven,No,30.0,28,17,0.8384105959999999,0.8384105959999999
538,18,29,29,12,3.0,1.0,12,0,75.0,54,23,31,0,5.0,0.0,40.0,Male,3.0,5.0,No,Economy,4,1,Base study,Main,,,Breakeven,No,21.0,29,17,0.9202649009999999,0.9202649009999999
539,18,30,30,12,3.0,1.0,12,0,75.0,45,5,40,0,31.0,0.0,23.0,Male,3.0,5.0,No,Economy,4,1,Base study,Main,,,Breakeven,No,30.0,30,17,0.8384105959999999,0.8384105959999999
540,19,1,1,12,3.0,1.0,12,0,75.0,30,16,14,0,,,,Female,8.0,4.0,No,Other,4,1,Base study,Main,,,Breakeven,No,45.0,1,18,0.638410596,0.638410596
541,19,2,2,12,3.0,1.0,12,0,75.0,10,64,0,54,14.0,0.0,16.0,Female,8.0,4.0,No,Other,4,1,Base study,Main,,,Breakeven,No,65.0,2,18,0.24812362,0.24812362
542,19,3,3,12,3.0,1.0,12,0,75.0,15,41,0,26,0.0,54.0,64.0,Female,8.0,4.0,No,Other,4,1,Base study,Main,,,Breakeven,No,60.0,3,18,0.358940397,0.358940397
543,19,4,4,12,3.0,1.0,12,0,75.0,11,79,0,68,0.0,26.0,41.0,Female,8.0,4.0,No,Other,4,1,Base study,Main,,,Breakeven,No,64.0,4,18,0.270993377,0.270993377
544,19,5,5,12,3.0,1.0,12,0,75.0,20,83,0,63,0.0,68.0,79.0,Female,8.0,4.0,No,Other,4,1,Base study,Main,,,Breakeven,No,55.0,5,18,0.460927152,0.460927152
545,19,6,6,12,3.0,1.0,12,0,75.0,23,51,0,28,0.0,63.0,83.0,Female,8.0,4.0,No,Other,4,1,Base study,Main,,,Breakeven,No,52.0,6,18,0.517880795,0.517880795
546,19,7,7,12,3.0,1.0,12,0,75.0,25,100,0,75,0.0,28.0,51.0,Female,8.0,4.0,No,Other,4,1,Base study,Main,,,Breakeven,No,50.0,7,18,0.554083885,0.554083885
547,19,8,8,12,3.0,1.0,12,0,75.0,30,99,0,69,0.0,75.0,100.0,Female,8.0,4.0,No,Other,4,1,Base study,Main,,,Breakeven,No,45.0,8,18,0.638410596,0.638410596
548,19,9,9,12,3.0,1.0,12,0,75.0,45,39,6,0,0.0,69.0,99.0,Female,8.0,4.0,No,Other,4,1,Base study,Main,,,Breakeven,No,30.0,9,18,0.8384105959999999,0.8384105959999999
549,19,10,10,12,3.0,1.0,12,0,75.0,25,83,0,58,6.0,0.0,39.0,Female,8.0,4.0,No,Other,4,1,Base study,Main,,,Breakeven,No,50.0,10,18,0.554083885,0.554083885
550,19,11,11,12,3.0,1.0,12,0,75.0,30,4,26,0,0.0,58.0,83.0,Female,8.0,4.0,No,Other,4,1,Base study,Main,,,Breakeven,No,45.0,11,18,0.638410596,0.638410596
551,19,12,12,12,3.0,1.0,12,0,75.0,20,39,0,19,26.0,0.0,4.0,Female,8.0,4.0,No,Other,4,1,Base study,Main,,,Breakeven,No,55.0,12,18,0.460927152,0.460927152
552,19,13,13,12,3.0,1.0,12,0,75.0,15,65,0,50,0.0,19.0,39.0,Female,8.0,4.0,No,Other,4,1,Base study,Main,,,Breakeven,No,60.0,13,18,0.358940397,0.358940397
553,19,14,14,12,3.0,1.0,12,0,75.0,23,42,0,19,0.0,50.0,65.0,Female,8.0,4.0,No,Other,4,1,Base study,Main,,,Breakeven,No,52.0,14,18,0.517880795,0.517880795
554,19,15,15,12,3.0,1.0,12,0,75.0,23,3,20,0,0.0,19.0,42.0,Female,8.0,4.0,No,Other,4,1,Base study,Main,,,Breakeven,No,52.0,15,18,0.517880795,0.517880795
555,19,16,16,12,3.0,1.0,12,0,75.0,1,65,0,64,20.0,0.0,3.0,Female,8.0,4.0,No,Other,4,1,Base study,Main,,,Breakeven,No,74.0,16,18,0.026401766,0.026401766
556,19,17,17,12,3.0,1.0,12,0,75.0,1,92,0,91,0.0,64.0,65.0,Female,8.0,4.0,No,Other,4,1,Base study,Main,,,Breakeven,No,74.0,17,18,0.026401766,0.026401766
557,19,18,18,12,3.0,1.0,12,0,75.0,15,86,0,71,0.0,91.0,92.0,Female,8.0,4.0,No,Other,4,1,Base study,Main,,,Breakeven,No,60.0,18,18,0.358940397,0.358940397
558,19,19,19,12,3.0,1.0,12,0,75.0,1,21,0,20,0.0,71.0,86.0,Female,8.0,4.0,No,Other,4,1,Base study,Main,,,Breakeven,No,74.0,19,18,0.026401766,0.026401766
559,19,20,20,12,3.0,1.0,12,0,75.0,1,26,0,25,0.0,20.0,21.0,Female,8.0,4.0,No,Other,4,1,Base study,Main,,,Breakeven,No,74.0,20,18,0.026401766,0.026401766
560,19,21,21,12,3.0,1.0,12,0,75.0,20,57,0,37,0.0,25.0,26.0,Female,8.0,4.0,No,Other,4,1,Base study,Main,,,Breakeven,No,55.0,21,18,0.460927152,0.460927152
561,19,22,22,12,3.0,1.0,12,0,75.0,1,28,0,27,0.0,37.0,57.0,Female,8.0,4.0,No,Other,4,1,Base study,Main,,,Breakeven,No,74.0,22,18,0.026401766,0.026401766
562,19,23,23,12,3.0,1.0,12,0,75.0,1,70,0,69,0.0,27.0,28.0,Female,8.0,4.0,No,Other,4,1,Base study,Main,,,Breakeven,No,74.0,23,18,0.026401766,0.026401766
563,19,24,24,12,3.0,1.0,12,0,75.0,1,66,0,65,0.0,69.0,70.0,Female,8.0,4.0,No,Other,4,1,Base study,Main,,,Breakeven,No,74.0,24,18,0.026401766,0.026401766
564,19,25,25,12,3.0,1.0,12,0,75.0,1,12,0,11,0.0,65.0,66.0,Female,8.0,4.0,No,Other,4,1,Base study,Main,,,Breakeven,No,74.0,25,18,0.026401766,0.026401766
565,19,26,26,12,3.0,1.0,12,0,75.0,1,22,0,21,0.0,11.0,12.0,Female,8.0,4.0,No,Other,4,1,Base study,Main,,,Breakeven,No,74.0,26,18,0.026401766,0.026401766
566,19,27,27,12,3.0,1.0,12,0,75.0,1,2,0,1,0.0,21.0,22.0,Female,8.0,4.0,No,Other,4,1,Base study,Main,,,Breakeven,No,74.0,27,18,0.026401766,0.026401766
567,19,28,28,12,3.0,1.0,12,0,75.0,10,90,0,80,0.0,1.0,2.0,Female,8.0,4.0,No,Other,4,1,Base study,Main,,,Breakeven,No,65.0,28,18,0.24812362,0.24812362
568,19,29,29,12,3.0,1.0,12,0,75.0,1,76,0,75,0.0,80.0,90.0,Female,8.0,4.0,No,Other,4,1,Base study,Main,,,Breakeven,No,74.0,29,18,0.026401766,0.026401766
569,19,30,30,12,3.0,1.0,12,0,75.0,1,95,0,94,0.0,75.0,76.0,Female,8.0,4.0,No,Other,4,1,Base study,Main,,,Breakeven,No,74.0,30,18,0.026401766,0.026401766
570,20,1,1,12,3.0,1.0,12,0,75.0,50,74,0,24,,,,Male,6.0,10.0,Past semesters,Business,4,1,Base study,Main,,,Breakeven,Yes,25.0,1,19,0.887417219,0.887417219
571,20,2,2,12,3.0,1.0,12,0,75.0,60,36,24,0,0.0,24.0,74.0,Male,6.0,10.0,Past semesters,Business,4,1,Base study,Main,,,Breakeven,Yes,15.0,2,19,0.958940397,0.958940397
572,20,3,3,12,3.0,1.0,12,0,75.0,60,19,41,0,24.0,0.0,36.0,Male,6.0,10.0,Past semesters,Business,4,1,Base study,Main,,,Breakeven,Yes,15.0,3,19,0.958940397,0.958940397
573,20,4,4,12,3.0,1.0,12,0,75.0,60,98,0,38,41.0,0.0,19.0,Male,6.0,10.0,Past semesters,Business,4,1,Base study,Main,,,Breakeven,Yes,15.0,4,19,0.958940397,0.958940397
574,20,5,5,12,3.0,1.0,12,0,75.0,60,70,0,10,0.0,38.0,98.0,Male,6.0,10.0,Past semesters,Business,4,1,Base study,Main,,,Breakeven,Yes,15.0,5,19,0.958940397,0.958940397
575,20,6,6,12,3.0,1.0,12,0,75.0,60,80,0,20,0.0,10.0,70.0,Male,6.0,10.0,Past semesters,Business,4,1,Base study,Main,,,Breakeven,Yes,15.0,6,19,0.958940397,0.958940397
576,20,7,7,12,3.0,1.0,12,0,75.0,60,79,0,19,0.0,20.0,80.0,Male,6.0,10.0,Past semesters,Business,4,1,Base study,Main,,,Breakeven,Yes,15.0,7,19,0.958940397,0.958940397
577,20,8,8,12,3.0,1.0,12,0,75.0,70,45,25,0,0.0,19.0,79.0,Male,6.0,10.0,Past semesters,Business,4,1,Base study,Main,,,Breakeven,Yes,5.0,8,19,0.995143488,0.995143488
578,20,9,9,12,3.0,1.0,12,0,75.0,70,42,28,0,25.0,0.0,45.0,Male,6.0,10.0,Past semesters,Business,4,1,Base study,Main,,,Breakeven,Yes,5.0,9,19,0.995143488,0.995143488
579,20,10,10,12,3.0,1.0,12,0,75.0,70,20,50,0,28.0,0.0,42.0,Male,6.0,10.0,Past semesters,Business,4,1,Base study,Main,,,Breakeven,Yes,5.0,10,19,0.995143488,0.995143488
580,20,11,11,12,3.0,1.0,12,0,75.0,60,13,47,0,50.0,0.0,20.0,Male,6.0,10.0,Past semesters,Business,4,1,Base study,Main,,,Breakeven,Yes,15.0,11,19,0.958940397,0.958940397
581,20,12,12,12,3.0,1.0,12,0,75.0,60,24,36,0,47.0,0.0,13.0,Male,6.0,10.0,Past semesters,Business,4,1,Base study,Main,,,Breakeven,Yes,15.0,12,19,0.958940397,0.958940397
582,20,13,13,12,3.0,1.0,12,0,75.0,60,7,53,0,36.0,0.0,24.0,Male,6.0,10.0,Past semesters,Business,4,1,Base study,Main,,,Breakeven,Yes,15.0,13,19,0.958940397,0.958940397
583,20,14,14,12,3.0,1.0,12,0,75.0,60,94,0,34,53.0,0.0,7.0,Male,6.0,10.0,Past semesters,Business,4,1,Base study,Main,,,Breakeven,Yes,15.0,14,19,0.958940397,0.958940397
584,20,15,15,12,3.0,1.0,12,0,75.0,60,44,16,0,0.0,34.0,94.0,Male,6.0,10.0,Past semesters,Business,4,1,Base study,Main,,,Breakeven,Yes,15.0,15,19,0.958940397,0.958940397
585,20,16,16,12,3.0,1.0,12,0,75.0,60,46,14,0,16.0,0.0,44.0,Male,6.0,10.0,Past semesters,Business,4,1,Base study,Main,,,Breakeven,Yes,15.0,16,19,0.958940397,0.958940397
586,20,17,17,12,3.0,1.0,12,0,75.0,60,45,15,0,14.0,0.0,46.0,Male,6.0,10.0,Past semesters,Business,4,1,Base study,Main,,,Breakeven,Yes,15.0,17,19,0.958940397,0.958940397
587,20,18,18,12,3.0,1.0,12,0,75.0,60,74,0,14,15.0,0.0,45.0,Male,6.0,10.0,Past semesters,Business,4,1,Base study,Main,,,Breakeven,Yes,15.0,18,19,0.958940397,0.958940397
588,20,19,19,12,3.0,1.0,12,0,75.0,70,12,58,0,0.0,14.0,74.0,Male,6.0,10.0,Past semesters,Business,4,1,Base study,Main,,,Breakeven,Yes,5.0,19,19,0.995143488,0.995143488
589,20,20,20,12,3.0,1.0,12,0,75.0,70,14,56,0,58.0,0.0,12.0,Male,6.0,10.0,Past semesters,Business,4,1,Base study,Main,,,Breakeven,Yes,5.0,20,19,0.995143488,0.995143488
590,20,21,21,12,3.0,1.0,12,0,75.0,70,69,1,0,56.0,0.0,14.0,Male,6.0,10.0,Past semesters,Business,4,1,Base study,Main,,,Breakeven,Yes,5.0,21,19,0.995143488,0.995143488
591,20,22,22,12,3.0,1.0,12,0,75.0,70,81,0,11,1.0,0.0,69.0,Male,6.0,10.0,Past semesters,Business,4,1,Base study,Main,,,Breakeven,Yes,5.0,22,19,0.995143488,0.995143488
592,20,23,23,12,3.0,1.0,12,0,75.0,70,1,69,0,0.0,11.0,81.0,Male,6.0,10.0,Past semesters,Business,4,1,Base study,Main,,,Breakeven,Yes,5.0,23,19,0.995143488,0.995143488
593,20,24,24,12,3.0,1.0,12,0,75.0,70,68,2,0,69.0,0.0,1.0,Male,6.0,10.0,Past semesters,Business,4,1,Base study,Main,,,Breakeven,Yes,5.0,24,19,0.995143488,0.995143488
594,20,25,25,12,3.0,1.0,12,0,75.0,60,68,0,8,2.0,0.0,68.0,Male,6.0,10.0,Past semesters,Business,4,1,Base study,Main,,,Breakeven,Yes,15.0,25,19,0.958940397,0.958940397
595,20,26,26,12,3.0,1.0,12,0,75.0,60,100,0,40,0.0,8.0,68.0,Male,6.0,10.0,Past semesters,Business,4,1,Base study,Main,,,Breakeven,Yes,15.0,26,19,0.958940397,0.958940397
596,20,27,27,12,3.0,1.0,12,0,75.0,60,91,0,31,0.0,40.0,100.0,Male,6.0,10.0,Past semesters,Business,4,1,Base study,Main,,,Breakeven,Yes,15.0,27,19,0.958940397,0.958940397
597,20,28,28,12,3.0,1.0,12,0,75.0,70,67,3,0,0.0,31.0,91.0,Male,6.0,10.0,Past semesters,Business,4,1,Base study,Main,,,Breakeven,Yes,5.0,28,19,0.995143488,0.995143488
598,20,29,29,12,3.0,1.0,12,0,75.0,70,54,16,0,3.0,0.0,67.0,Male,6.0,10.0,Past semesters,Business,4,1,Base study,Main,,,Breakeven,Yes,5.0,29,19,0.995143488,0.995143488
599,20,30,30,12,3.0,1.0,12,0,75.0,70,64,6,0,16.0,0.0,54.0,Male,6.0,10.0,Past semesters,Business,4,1,Base study,Main,,,Breakeven,Yes,5.0,30,19,0.995143488,0.995143488
600,21,1,1,12,3.0,1.0,12,0,75.0,31,97,0,66,,,,Male,3.0,4.0,No,Economy,4,1,Base study,Main,,,Breakeven,No,44.0,1,20,0.6542163360000001,0.6542163360000001
601,21,2,2,12,3.0,1.0,12,0,75.0,35,87,0,52,0.0,66.0,97.0,Male,3.0,4.0,No,Economy,4,1,Base study,Main,,,Breakeven,No,40.0,2,20,0.713907285,0.713907285
602,21,3,3,12,3.0,1.0,12,0,75.0,35,76,0,41,0.0,52.0,87.0,Male,3.0,4.0,No,Economy,4,1,Base study,Main,,,Breakeven,No,40.0,3,20,0.713907285,0.713907285
603,21,4,4,12,3.0,1.0,12,0,75.0,35,59,0,24,0.0,41.0,76.0,Male,3.0,4.0,No,Economy,4,1,Base study,Main,,,Breakeven,No,40.0,4,20,0.713907285,0.713907285
604,21,5,5,12,3.0,1.0,12,0,75.0,35,68,0,33,0.0,24.0,59.0,Male,3.0,4.0,No,Economy,4,1,Base study,Main,,,Breakeven,No,40.0,5,20,0.713907285,0.713907285
605,21,6,6,12,3.0,1.0,12,0,75.0,35,55,0,20,0.0,33.0,68.0,Male,3.0,4.0,No,Economy,4,1,Base study,Main,,,Breakeven,No,40.0,6,20,0.713907285,0.713907285
606,21,7,7,12,3.0,1.0,12,0,75.0,35,17,18,0,0.0,20.0,55.0,Male,3.0,4.0,No,Economy,4,1,Base study,Main,,,Breakeven,No,40.0,7,20,0.713907285,0.713907285
607,21,8,8,12,3.0,1.0,12,0,75.0,35,90,0,55,18.0,0.0,17.0,Male,3.0,4.0,No,Economy,4,1,Base study,Main,,,Breakeven,No,40.0,8,20,0.713907285,0.713907285
608,21,9,9,12,3.0,1.0,12,0,75.0,35,95,0,60,0.0,55.0,90.0,Male,3.0,4.0,No,Economy,4,1,Base study,Main,,,Breakeven,No,40.0,9,20,0.713907285,0.713907285
609,21,10,10,12,3.0,1.0,12,0,75.0,35,86,0,51,0.0,60.0,95.0,Male,3.0,4.0,No,Economy,4,1,Base study,Main,,,Breakeven,No,40.0,10,20,0.713907285,0.713907285
610,21,11,11,12,3.0,1.0,12,0,75.0,40,78,0,38,0.0,51.0,86.0,Male,3.0,4.0,No,Economy,4,1,Base study,Main,,,Breakeven,No,35.0,11,20,0.7805739509999999,0.7805739509999999
611,21,12,12,12,3.0,1.0,12,0,75.0,40,11,29,0,0.0,38.0,78.0,Male,3.0,4.0,No,Economy,4,1,Base study,Main,,,Breakeven,No,35.0,12,20,0.7805739509999999,0.7805739509999999
612,21,13,13,12,3.0,1.0,12,0,75.0,40,59,0,19,29.0,0.0,11.0,Male,3.0,4.0,No,Economy,4,1,Base study,Main,,,Breakeven,No,35.0,13,20,0.7805739509999999,0.7805739509999999
613,21,14,14,12,3.0,1.0,12,0,75.0,40,24,16,0,0.0,19.0,59.0,Male,3.0,4.0,No,Economy,4,1,Base study,Main,,,Breakeven,No,35.0,14,20,0.7805739509999999,0.7805739509999999
614,21,15,15,12,3.0,1.0,12,0,75.0,40,57,0,17,16.0,0.0,24.0,Male,3.0,4.0,No,Economy,4,1,Base study,Main,,,Breakeven,No,35.0,15,20,0.7805739509999999,0.7805739509999999
615,21,16,16,12,3.0,1.0,12,0,75.0,40,82,0,42,0.0,17.0,57.0,Male,3.0,4.0,No,Economy,4,1,Base study,Main,,,Breakeven,No,35.0,16,20,0.7805739509999999,0.7805739509999999
616,21,17,17,12,3.0,1.0,12,0,75.0,40,74,0,34,0.0,42.0,82.0,Male,3.0,4.0,No,Economy,4,1,Base study,Main,,,Breakeven,No,35.0,17,20,0.7805739509999999,0.7805739509999999
617,21,18,18,12,3.0,1.0,12,0,75.0,40,73,0,33,0.0,34.0,74.0,Male,3.0,4.0,No,Economy,4,1,Base study,Main,,,Breakeven,No,35.0,18,20,0.7805739509999999,0.7805739509999999
618,21,19,19,12,3.0,1.0,12,0,75.0,60,38,22,0,0.0,33.0,73.0,Male,3.0,4.0,No,Economy,4,1,Base study,Main,,,Breakeven,No,15.0,19,20,0.958940397,0.958940397
619,21,20,20,12,3.0,1.0,12,0,75.0,60,66,0,6,22.0,0.0,38.0,Male,3.0,4.0,No,Economy,4,1,Base study,Main,,,Breakeven,No,15.0,20,20,0.958940397,0.958940397
620,21,21,21,12,3.0,1.0,12,0,75.0,60,58,2,0,0.0,6.0,66.0,Male,3.0,4.0,No,Economy,4,1,Base study,Main,,,Breakeven,No,15.0,21,20,0.958940397,0.958940397
621,21,22,22,12,3.0,1.0,12,0,75.0,60,17,43,0,2.0,0.0,58.0,Male,3.0,4.0,No,Economy,4,1,Base study,Main,,,Breakeven,No,15.0,22,20,0.958940397,0.958940397
622,21,23,23,12,3.0,1.0,12,0,75.0,50,73,0,23,43.0,0.0,17.0,Male,3.0,4.0,No,Economy,4,1,Base study,Main,,,Breakeven,No,25.0,23,20,0.887417219,0.887417219
623,21,24,24,12,3.0,1.0,12,0,75.0,50,54,0,4,0.0,23.0,73.0,Male,3.0,4.0,No,Economy,4,1,Base study,Main,,,Breakeven,No,25.0,24,20,0.887417219,0.887417219
624,21,25,25,12,3.0,1.0,12,0,75.0,50,41,9,0,0.0,4.0,54.0,Male,3.0,4.0,No,Economy,4,1,Base study,Main,,,Breakeven,No,25.0,25,20,0.887417219,0.887417219
625,21,26,26,12,3.0,1.0,12,0,75.0,50,95,0,45,9.0,0.0,41.0,Male,3.0,4.0,No,Economy,4,1,Base study,Main,,,Breakeven,No,25.0,26,20,0.887417219,0.887417219
626,21,27,27,12,3.0,1.0,12,0,75.0,50,36,14,0,0.0,45.0,95.0,Male,3.0,4.0,No,Economy,4,1,Base study,Main,,,Breakeven,No,25.0,27,20,0.887417219,0.887417219
627,21,28,28,12,3.0,1.0,12,0,75.0,50,33,17,0,14.0,0.0,36.0,Male,3.0,4.0,No,Economy,4,1,Base study,Main,,,Breakeven,No,25.0,28,20,0.887417219,0.887417219
628,21,29,29,12,3.0,1.0,12,0,75.0,50,69,0,19,17.0,0.0,33.0,Male,3.0,4.0,No,Economy,4,1,Base study,Main,,,Breakeven,No,25.0,29,20,0.887417219,0.887417219
629,21,30,30,12,3.0,1.0,12,0,75.0,70,60,10,0,0.0,19.0,69.0,Male,3.0,4.0,No,Economy,4,1,Base study,Main,,,Breakeven,No,5.0,30,20,0.995143488,0.995143488
630,22,1,1,12,3.0,1.0,12,0,75.0,50,18,32,0,,,,Female,7.0,6.0,No,Other Eng,4,1,Base study,Main,,,Breakeven,No,25.0,1,21,0.887417219,0.887417219
631,22,2,2,12,3.0,1.0,12,0,75.0,60,53,7,0,32.0,0.0,18.0,Female,7.0,6.0,No,Other Eng,4,1,Base study,Main,,,Breakeven,No,15.0,2,21,0.958940397,0.958940397
632,22,3,3,12,3.0,1.0,12,0,75.0,65,10,55,0,7.0,0.0,53.0,Female,7.0,6.0,No,Other Eng,4,1,Base study,Main,,,Breakeven,No,10.0,3,21,0.9814569540000001,0.9814569540000001
633,22,4,4,12,3.0,1.0,12,0,75.0,40,90,0,50,55.0,0.0,10.0,Female,7.0,6.0,No,Other Eng,4,1,Base study,Main,,,Breakeven,No,35.0,4,21,0.7805739509999999,0.7805739509999999
634,22,5,5,12,3.0,1.0,12,0,75.0,50,55,0,5,0.0,50.0,90.0,Female,7.0,6.0,No,Other Eng,4,1,Base study,Main,,,Breakeven,No,25.0,5,21,0.887417219,0.887417219
635,22,6,6,12,3.0,1.0,12,0,75.0,45,96,0,51,0.0,5.0,55.0,Female,7.0,6.0,No,Other Eng,4,1,Base study,Main,,,Breakeven,No,30.0,6,21,0.8384105959999999,0.8384105959999999
636,22,7,7,12,3.0,1.0,12,0,75.0,70,98,0,28,0.0,51.0,96.0,Female,7.0,6.0,No,Other Eng,4,1,Base study,Main,,,Breakeven,No,5.0,7,21,0.995143488,0.995143488
637,22,8,8,12,3.0,1.0,12,0,75.0,65,92,0,27,0.0,28.0,98.0,Female,7.0,6.0,No,Other Eng,4,1,Base study,Main,,,Breakeven,No,10.0,8,21,0.9814569540000001,0.9814569540000001
638,22,9,9,12,3.0,1.0,12,0,75.0,70,20,50,0,0.0,27.0,92.0,Female,7.0,6.0,No,Other Eng,4,1,Base study,Main,,,Breakeven,No,5.0,9,21,0.995143488,0.995143488
639,22,10,10,12,3.0,1.0,12,0,75.0,55,58,0,3,50.0,0.0,20.0,Female,7.0,6.0,No,Other Eng,4,1,Base study,Main,,,Breakeven,No,20.0,10,21,0.927593819,0.927593819
640,22,11,11,12,3.0,1.0,12,0,75.0,60,35,25,0,0.0,3.0,58.0,Female,7.0,6.0,No,Other Eng,4,1,Base study,Main,,,Breakeven,No,15.0,11,21,0.958940397,0.958940397
